accX,accY,accZ,accX_cal,accY_cal,accZ_cal,gyroX,gyroY,gyroZ,gyroX_cal,gyroY_cal,gyroZ_cal
818,-400,16706,0,0,-0.01,-225,-62,122,0.05,0.11,0
814,-370,16802,0,0,0,-226,-65,120,0.03,0.06,-0.03
838,-370,16664,0,0,-0.01,-228,-74,129,0,-0.08,0.11
800,-316,16738,0,0,0,-228,-72,124,0,-0.05,0.03
844,-358,16902,0,0,0.01,-226,-61,121,0.03,0.12,-0.02
874,-314,16702,0,0,-0.01,-234,-70,125,-0.09,-0.02,0.05
664,-310,16792,-0.01,0,0,-229,-76,128,-0.02,-0.11,0.09
820,-302,16882,0,0,0.01,-212,-76,114,0.24,-0.11,-0.12
812,-280,16762,0,0,0,-227,-79,118,0.02,-0.15,-0.06
874,-236,16800,0,0.01,0,-242,-65,126,-0.21,0.06,0.06
766,-324,16862,0,0,0,-238,-61,120,-0.15,0.12,-0.03
788,-258,16716,0,0,0,-229,-61,130,-0.02,0.12,0.12
814,-334,16850,0,0,0,-231,-64,115,-0.05,0.08,-0.11
802,-354,16816,0,0,0,-224,-66,118,0.06,0.05,-0.06
884,-342,16804,0,0,0,-221,-73,128,0.11,-0.06,0.09
804,-346,16770,0,0,0,-229,-61,120,-0.02,0.12,-0.03
844,-374,16858,0,0,0,-223,-58,132,0.08,0.17,0.15
866,-308,16788,0,0,0,-230,-62,125,-0.03,0.11,0.05
794,-344,16790,0,0,0,-220,-67,117,0.12,0.03,-0.08
814,-350,16854,0,0,0,-226,-64,126,0.03,0.08,0.06
832,-328,16898,0,0,0.01,-232,-79,112,-0.06,-0.15,-0.15
838,-368,16698,0,0,-0.01,-229,-67,124,-0.02,0.03,0.03
768,-382,16708,0,0,-0.01,-225,-67,122,0.05,0.03,0
788,-312,16768,0,0,0,-229,-68,127,-0.02,0.02,0.08
808,-326,16828,0,0,0,-229,-70,133,-0.02,-0.02,0.17
836,-290,16820,0,0,0,-224,-74,127,0.06,-0.08,0.08
764,-400,16678,0,0,-0.01,-229,-63,128,-0.02,0.09,0.09
794,-328,16712,0,0,0,-231,-67,118,-0.05,0.03,-0.06
896,-322,16750,0,0,0,-220,-65,126,0.12,0.06,0.06
832,-206,16900,0,0.01,0.01,-213,-48,126,0.23,0.32,0.06
884,-364,16816,0,0,0,-239,-55,124,-0.17,0.21,0.03
866,-416,16748,0,-0.01,0,-235,-65,118,-0.11,0.06,-0.06
760,-376,16682,0,0,-0.01,-228,-82,126,0,-0.2,0.06
858,-384,16844,0,0,0,-236,-72,122,-0.12,-0.05,0
836,-304,16824,0,0,0,-231,-82,123,-0.05,-0.2,0.02
818,-362,16744,0,0,0,-227,-66,125,0.02,0.05,0.05
850,-322,16922,0,0,0.01,-222,-74,129,0.09,-0.08,0.11
860,-250,16770,0,0,0,-236,-60,119,-0.12,0.14,-0.05
850,-306,16648,0,0,-0.01,-220,-73,128,0.12,-0.06,0.09
884,-352,16804,0,0,0,-234,-65,126,-0.09,0.06,0.06
784,-362,16766,0,0,0,-232,-72,119,-0.06,-0.05,-0.05
774,-250,16718,0,0,0,-236,-81,123,-0.12,-0.18,0.02
688,-314,16704,-0.01,0,-0.01,-225,-76,122,0.05,-0.11,0
772,-308,16766,0,0,0,-222,-65,121,0.09,0.06,-0.02
808,-322,16814,0,0,0,-219,-63,129,0.14,0.09,0.11
882,-416,16758,0,-0.01,0,-228,-66,133,0,0.05,0.17
834,-406,16760,0,0,0,-237,-63,133,-0.14,0.09,0.17
774,-402,16698,0,0,-0.01,-230,-72,114,-0.03,-0.05,-0.12
878,-346,16774,0,0,0,-217,-77,118,0.17,-0.12,-0.06
796,-370,16746,0,0,0,-222,-75,119,0.09,-0.09,-0.05
780,-282,16868,0,0,0,-237,-76,116,-0.14,-0.11,-0.09
808,-280,16836,0,0,0,-237,-72,127,-0.14,-0.05,0.08
704,-418,16942,-0.01,-0.01,0.01,-240,-62,122,-0.18,0.11,0
774,-164,16810,0,0.01,0,-233,-54,129,-0.08,0.23,0.11
736,-360,16804,0,0,0,-226,-56,118,0.03,0.2,-0.06
832,-384,16720,0,0,0,-222,-61,126,0.09,0.12,0.06
892,-308,16884,0,0,0.01,-244,-72,118,-0.24,-0.05,-0.06
806,-318,16804,0,0,0,-232,-76,120,-0.06,-0.11,-0.03
806,-322,16698,0,0,-0.01,-233,-68,123,-0.08,0.02,0.02
832,-348,16780,0,0,0,-220,-72,127,0.12,-0.05,0.08
874,-292,16740,0,0,0,-224,-66,122,0.06,0.05,0
860,-422,16774,0,-0.01,0,-232,-67,121,-0.06,0.03,-0.02
890,-328,16852,0,0,0,-247,-72,123,-0.29,-0.05,0.02
806,-274,16770,0,0,0,-226,-76,118,0.03,-0.11,-0.06
824,-300,16736,0,0,0,-232,-57,120,-0.06,0.18,-0.03
782,-414,16736,0,-0.01,0,-224,-69,122,0.06,0,0
886,-372,16714,0,0,0,-235,-69,112,-0.11,0,-0.15
790,-376,16676,0,0,-0.01,-228,-67,119,0,0.03,-0.05
836,-322,16784,0,0,0,-229,-73,126,-0.02,-0.06,0.06
812,-316,16876,0,0,0.01,-231,-68,121,-0.05,0.02,-0.02
802,-270,16704,0,0,-0.01,-226,-75,123,0.03,-0.09,0.02
920,-350,16806,0.01,0,0,-234,-61,127,-0.09,0.12,0.08
806,-326,16846,0,0,0,-233,-67,128,-0.08,0.03,0.09
836,-380,16778,0,0,0,-225,-65,125,0.05,0.06,0.05
840,-344,16848,0,0,0,-223,-74,122,0.08,-0.08,0
882,-310,16848,0,0,0,-225,-69,121,0.05,0,-0.02
788,-312,16806,0,0,0,-223,-74,115,0.08,-0.08,-0.11
834,-296,16810,0,0,0,-230,-65,125,-0.03,0.06,0.05
874,-396,16794,0,0,0,-232,-68,114,-0.06,0.02,-0.12
808,-320,16680,0,0,-0.01,-227,-74,121,0.02,-0.08,-0.02
860,-294,16836,0,0,0,-230,-60,128,-0.03,0.14,0.09
786,-322,16876,0,0,0.01,-246,-70,118,-0.27,-0.02,-0.06
766,-312,16708,0,0,-0.01,-231,-81,123,-0.05,-0.18,0.02
800,-310,16774,0,0,0,-228,-65,126,0,0.06,0.06
796,-312,16756,0,0,0,-231,-72,130,-0.05,-0.05,0.12
778,-302,16740,0,0,0,-238,-73,117,-0.15,-0.06,-0.08
878,-264,16866,0,0,0,-232,-73,123,-0.06,-0.06,0.02
824,-316,16720,0,0,0,-233,-67,121,-0.08,0.03,-0.02
854,-222,16796,0,0.01,0,-221,-78,122,0.11,-0.14,0
822,-262,16796,0,0,0,-225,-66,126,0.05,0.05,0.06
882,-340,16836,0,0,0,-228,-77,131,0,-0.12,0.14
800,-312,16798,0,0,0,-224,-68,119,0.06,0.02,-0.05
822,-316,16702,0,0,-0.01,-221,-73,122,0.11,-0.06,0
878,-356,16778,0,0,0,-223,-72,123,0.08,-0.05,0.02
786,-290,16670,0,0,-0.01,-230,-62,120,-0.03,0.11,-0.03
874,-356,16706,0,0,-0.01,-229,-66,117,-0.02,0.05,-0.08
808,-272,16818,0,0,0,-222,-72,122,0.09,-0.05,0
870,-272,16866,0,0,0,-225,-68,117,0.05,0.02,-0.08
752,-390,16646,0,0,-0.01,-225,-73,118,0.05,-0.06,-0.06
780,-386,16790,0,0,0,-233,-69,129,-0.08,0,0.11
866,-328,16784,0,0,0,-233,-77,120,-0.08,-0.12,-0.03
856,-396,16784,0,0,0,-230,-71,123,-0.03,-0.03,0.02
800,-360,16820,0,0,0,-226,-66,120,0.03,0.05,-0.03
762,-336,16758,0,0,0,-225,-67,128,0.05,0.03,0.09
834,-282,16824,0,0,0,-224,-67,132,0.06,0.03,0.15
828,-416,16680,0,-0.01,-0.01,-236,-75,122,-0.12,-0.09,0
804,-302,16902,0,0,0.01,-230,-73,120,-0.03,-0.06,-0.03
836,-338,16722,0,0,0,-220,-59,130,0.12,0.15,0.12
892,-320,16960,0,0,0.01,-223,-71,116,0.08,-0.03,-0.09
760,-300,16874,0,0,0,-231,-62,133,-0.05,0.11,0.17
754,-310,16800,0,0,0,-227,-73,112,0.02,-0.06,-0.15
836,-286,16726,0,0,0,-228,-60,125,0,0.14,0.05
786,-418,16734,0,-0.01,0,-229,-62,121,-0.02,0.11,-0.02
810,-312,16764,0,0,0,-231,-72,122,-0.05,-0.05,0
724,-374,16708,-0.01,0,-0.01,-233,-72,121,-0.08,-0.05,-0.02
884,-310,16834,0,0,0,-222,-80,121,0.09,-0.17,-0.02
888,-366,16824,0,0,0,-220,-66,127,0.12,0.05,0.08
814,-388,16718,0,0,0,-231,-70,115,-0.05,-0.02,-0.11
884,-348,16676,0,0,-0.01,-233,-68,121,-0.08,0.02,-0.02
818,-364,16866,0,0,0,-235,-76,127,-0.11,-0.11,0.08
764,-302,16810,0,0,0,-220,-69,115,0.12,0,-0.11
904,-320,16822,0.01,0,0,-235,-69,120,-0.11,0,-0.03
830,-312,16768,0,0,0,-239,-69,125,-0.17,0,0.05
868,-332,16756,0,0,0,-231,-62,123,-0.05,0.11,0.02
874,-376,16708,0,0,-0.01,-233,-67,115,-0.08,0.03,-0.11
844,-300,16840,0,0,0,-225,-74,119,0.05,-0.08,-0.05
742,-382,16774,0,0,0,-226,-71,123,0.03,-0.03,0.02
814,-378,16658,0,0,-0.01,-238,-75,116,-0.15,-0.09,-0.09
834,-336,16728,0,0,0,-243,-73,124,-0.23,-0.06,0.03
804,-356,16806,0,0,0,-230,-73,119,-0.03,-0.06,-0.05
786,-348,16752,0,0,0,-236,-71,115,-0.12,-0.03,-0.11
766,-260,16750,0,0,0,-224,-73,120,0.06,-0.06,-0.03
846,-354,16734,0,0,0,-230,-65,121,-0.03,0.06,-0.02
776,-320,16734,0,0,0,-227,-63,124,0.02,0.09,0.03
850,-418,16858,0,-0.01,0,-239,-74,125,-0.17,-0.08,0.05
766,-372,16778,0,0,0,-221,-71,123,0.11,-0.03,0.02
842,-268,16710,0,0,-0.01,-233,-64,124,-0.08,0.08,0.03
776,-306,16748,0,0,0,-226,-71,122,0.03,-0.03,0
842,-376,16694,0,0,-0.01,-226,-60,129,0.03,0.14,0.11
884,-312,16800,0,0,0,-224,-65,122,0.06,0.06,0
856,-376,16838,0,0,0,-226,-64,125,0.03,0.08,0.05
798,-314,16858,0,0,0,-228,-64,126,0,0.08,0.06
980,-312,16796,0.01,0,0,-221,-79,123,0.11,-0.15,0.02
882,-148,16682,0,0.01,-0.01,-238,-83,113,-0.15,-0.21,-0.14
794,-324,16788,0,0,0,-227,-79,121,0.02,-0.15,-0.02
768,-258,16824,0,0,0,-232,-80,130,-0.06,-0.17,0.12
810,-360,16688,0,0,-0.01,-227,-74,128,0.02,-0.08,0.09
822,-262,16740,0,0,0,-225,-72,113,0.05,-0.05,-0.14
738,-400,16784,0,0,0,-229,-54,129,-0.02,0.23,0.11
820,-284,16804,0,0,0,-225,-63,126,0.05,0.09,0.06
792,-316,16800,0,0,0,-236,-61,128,-0.12,0.12,0.09
960,-366,16774,0.01,0,0,-227,-61,128,0.02,0.12,0.09
918,-372,16822,0.01,0,0,-229,-94,120,-0.02,-0.38,-0.03
884,-304,16730,0,0,0,-215,-60,120,0.2,0.14,-0.03
960,-380,16868,0.01,0,0,-222,-73,123,0.09,-0.06,0.02
856,-362,16888,0,0,0.01,-238,-81,118,-0.15,-0.18,-0.06
704,-272,16886,-0.01,0,0.01,-229,-77,126,-0.02,-0.12,0.06
814,-392,16714,0,0,0,-230,-71,115,-0.03,-0.03,-0.11
910,-302,16764,0.01,0,0,-239,-80,114,-0.17,-0.17,-0.12
818,-298,16688,0,0,-0.01,-227,-68,121,0.02,0.02,-0.02
744,-340,16884,0,0,0.01,-231,-68,128,-0.05,0.02,0.09
826,-310,16768,0,0,0,-227,-73,124,0.02,-0.06,0.03
808,-330,16860,0,0,0,-226,-68,122,0.03,0.02,0
772,-344,16736,0,0,0,-224,-66,122,0.06,0.05,0
792,-308,16708,0,0,-0.01,-234,-57,125,-0.09,0.18,0.05
842,-292,16728,0,0,0,-232,-65,119,-0.06,0.06,-0.05
824,-316,16716,0,0,0,-229,-70,125,-0.02,-0.02,0.05
760,-304,16620,0,0,-0.01,-223,-75,118,0.08,-0.09,-0.06
768,-340,16778,0,0,0,-230,-86,114,-0.03,-0.26,-0.12
854,-412,16780,0,-0.01,0,-234,-65,112,-0.09,0.06,-0.15
776,-370,16842,0,0,0,-233,-50,123,-0.08,0.29,0.02
782,-334,16766,0,0,0,-229,-63,120,-0.02,0.09,-0.03
838,-312,16704,0,0,-0.01,-225,-60,123,0.05,0.14,0.02
906,-318,16752,0.01,0,0,-236,-64,126,-0.12,0.08,0.06
892,-254,16760,0,0,0,-224,-78,125,0.06,-0.14,0.05
860,-236,16762,0,0.01,0,-229,-72,117,-0.02,-0.05,-0.08
778,-364,16840,0,0,0,-235,-76,123,-0.11,-0.11,0.02
876,-342,16772,0,0,0,-227,-62,128,0.02,0.11,0.09
808,-276,16798,0,0,0,-234,-70,111,-0.09,-0.02,-0.17
820,-376,16642,0,0,-0.01,-236,-71,118,-0.12,-0.03,-0.06
840,-338,16680,0,0,-0.01,-220,-73,119,0.12,-0.06,-0.05
864,-378,16810,0,0,0,-233,-70,118,-0.08,-0.02,-0.06
898,-192,16658,0,0.01,-0.01,-245,-67,121,-0.26,0.03,-0.02
712,-328,16846,-0.01,0,0,-227,-65,129,0.02,0.06,0.11
768,-326,16696,0,0,-0.01,-210,-62,134,0.27,0.11,0.18
950,-344,16752,0.01,0,0,-220,-81,118,0.12,-0.18,-0.06
860,-386,16756,0,0,0,-231,-73,117,-0.05,-0.06,-0.08
760,-384,16754,0,0,0,-237,-73,118,-0.14,-0.06,-0.06
804,-378,16682,0,0,-0.01,-227,-66,124,0.02,0.05,0.03
814,-340,16842,0,0,0,-216,-79,118,0.18,-0.15,-0.06
812,-234,16804,0,0.01,0,-220,-79,123,0.12,-0.15,0.02
858,-348,16654,0,0,-0.01,-235,-45,130,-0.11,0.37,0.12
800,-358,16780,0,0,0,-226,-60,120,0.03,0.14,-0.03
820,-356,16836,0,0,0,-225,-84,127,0.05,-0.23,0.08
848,-298,16740,0,0,0,-220,-77,119,0.12,-0.12,-0.05
848,-220,16792,0,0.01,0,-232,-72,126,-0.06,-0.05,0.06
808,-346,16700,0,0,-0.01,-228,-66,120,0,0.05,-0.03
844,-286,16756,0,0,0,-224,-75,118,0.06,-0.09,-0.06
804,-366,16782,0,0,0,-224,-79,124,0.06,-0.15,0.03
858,-372,16928,0,0,0.01,-227,-70,131,0.02,-0.02,0.14
840,-324,16744,0,0,0,-230,-70,123,-0.03,-0.02,0.02
764,-276,16778,0,0,0,-228,-72,137,0,-0.05,0.23
734,-326,16786,-0.01,0,0,-224,-71,124,0.06,-0.03,0.03
898,-248,16740,0,0,0,-228,-54,119,0,0.23,-0.05
806,-312,16798,0,0,0,-233,-52,112,-0.08,0.26,-0.15
792,-398,16606,0,0,-0.01,-234,-65,123,-0.09,0.06,0.02
826,-308,16870,0,0,0,-222,-75,115,0.09,-0.09,-0.11
760,-356,16858,0,0,0,-228,-71,126,0,-0.03,0.06
854,-360,16838,0,0,0,-219,-77,120,0.14,-0.12,-0.03
826,-362,16754,0,0,0,-231,-61,118,-0.05,0.12,-0.06
900,-334,16808,0.01,0,0,-225,-75,124,0.05,-0.09,0.03
900,-252,16682,0.01,0,-0.01,-235,-75,131,-0.11,-0.09,0.14
782,-302,16766,0,0,0,-228,-63,126,0,0.09,0.06
882,-454,16816,0,-0.01,0,-231,-67,130,-0.05,0.03,0.12
846,-332,16876,0,0,0.01,-220,-67,126,0.12,0.03,0.06
776,-352,16810,0,0,0,-232,-75,122,-0.06,-0.09,0
782,-356,16738,0,0,0,-219,-73,122,0.14,-0.06,0
830,-380,16762,0,0,0,-239,-69,122,-0.17,0,0
710,-248,16612,-0.01,0,-0.01,-231,-72,125,-0.05,-0.05,0.05
692,-334,16768,-0.01,0,0,-233,-61,112,-0.08,0.12,-0.15
640,-450,16970,-0.01,-0.01,0.01,-220,-81,123,0.12,-0.18,0.02
972,-306,16658,0.01,0,-0.01,-229,-64,128,-0.02,0.08,0.09
870,-334,16854,0,0,0,-241,-65,128,-0.2,0.06,0.09
854,-244,16770,0,0.01,0,-229,-69,120,-0.02,0,-0.03
860,-348,16906,0,0,0.01,-234,-66,123,-0.09,0.05,0.02
792,-318,16730,0,0,0,-222,-70,123,0.09,-0.02,0.02
804,-424,16800,0,-0.01,0,-229,-63,124,-0.02,0.09,0.03
836,-358,16688,0,0,-0.01,-224,-70,127,0.06,-0.02,0.08
760,-288,16680,0,0,-0.01,-235,-56,123,-0.11,0.2,0.02
776,-354,16808,0,0,0,-227,-66,124,0.02,0.05,0.03
760,-414,16748,0,-0.01,0,-228,-61,113,0,0.12,-0.14
838,-272,16824,0,0,0,-228,-71,122,0,-0.03,0
870,-306,16734,0,0,0,-227,-66,128,0.02,0.05,0.09
798,-334,16792,0,0,0,-226,-76,121,0.03,-0.11,-0.02
830,-370,16854,0,0,0,-228,-63,122,0,0.09,0
764,-306,16866,0,0,0,-228,-68,121,0,0.02,-0.02
846,-346,16750,0,0,0,-228,-75,121,0,-0.09,-0.02
850,-344,16682,0,0,-0.01,-226,-63,128,0.03,0.09,0.09
896,-210,16760,0,0.01,0,-227,-71,123,0.02,-0.03,0.02
766,-348,16882,0,0,0.01,-241,-65,124,-0.2,0.06,0.03
896,-366,16822,0,0,0,-230,-64,123,-0.03,0.08,0.02
784,-376,16782,0,0,0,-222,-67,117,0.09,0.03,-0.08
964,-250,16786,0.01,0,0,-229,-72,130,-0.02,-0.05,0.12
804,-398,16670,0,0,-0.01,-240,-59,132,-0.18,0.15,0.15
772,-300,16684,0,0,-0.01,-224,-69,120,0.06,0,-0.03
818,-342,16842,0,0,0,-227,-65,120,0.02,0.06,-0.03
892,-292,16814,0,0,0,-227,-71,120,0.02,-0.03,-0.03
790,-366,16768,0,0,0,-236,-58,120,-0.12,0.17,-0.03
820,-264,16686,0,0,-0.01,-228,-69,130,0,0,0.12
840,-260,16876,0,0,0.01,-233,-63,129,-0.08,0.09,0.11
748,-400,16822,0,0,0,-229,-68,123,-0.02,0.02,0.02
886,-336,16800,0,0,0,-225,-84,126,0.05,-0.23,0.06
806,-314,16776,0,0,0,-233,-72,124,-0.08,-0.05,0.03
782,-282,16860,0,0,0,-231,-72,129,-0.05,-0.05,0.11
738,-290,16772,0,0,0,-232,-68,118,-0.06,0.02,-0.06
846,-352,16896,0,0,0.01,-221,-68,121,0.11,0.02,-0.02
852,-376,16796,0,0,0,-224,-73,114,0.06,-0.06,-0.12
812,-366,16766,0,0,0,-236,-64,125,-0.12,0.08,0.05
758,-358,16770,0,0,0,-218,-69,126,0.15,0,0.06
806,-282,16850,0,0,0,-225,-68,126,0.05,0.02,0.06
852,-234,16838,0,0.01,0,-228,-73,123,0,-0.06,0.02
758,-340,16846,0,0,0,-220,-73,131,0.12,-0.06,0.14
788,-366,16786,0,0,0,-223,-69,121,0.08,0,-0.02
758,-294,16702,0,0,-0.01,-221,-88,131,0.11,-0.29,0.14
774,-342,16750,0,0,0,-225,-60,118,0.05,0.14,-0.06
876,-320,16770,0,0,0,-239,-67,117,-0.17,0.03,-0.08
836,-388,16838,0,0,0,-233,-73,118,-0.08,-0.06,-0.06
806,-272,16766,0,0,0,-220,-74,127,0.12,-0.08,0.08
820,-388,16766,0,0,0,-230,-63,118,-0.03,0.09,-0.06
816,-290,16910,0,0,0.01,-229,-67,125,-0.02,0.03,0.05
786,-392,16734,0,0,0,-241,-67,130,-0.2,0.03,0.12
720,-342,16832,-0.01,0,0,-224,-71,127,0.06,-0.03,0.08
844,-272,16836,0,0,0,-235,-76,120,-0.11,-0.11,-0.03
956,-352,16796,0.01,0,0,-227,-72,126,0.02,-0.05,0.06
766,-280,16752,0,0,0,-236,-77,125,-0.12,-0.12,0.05
732,-288,16806,-0.01,0,0,-210,-76,126,0.27,-0.11,0.06
872,-320,16796,0,0,0,-233,-53,133,-0.08,0.24,0.17
756,-538,16890,0,-0.01,0.01,-233,-63,119,-0.08,0.09,-0.05
924,-150,16704,0.01,0.01,-0.01,-226,-77,125,0.03,-0.12,0.05
674,-454,16724,-0.01,-0.01,0,-221,-72,125,0.11,-0.05,0.05
932,-210,16790,0.01,0.01,0,-231,-65,120,-0.05,0.06,-0.03
672,-422,16874,-0.01,-0.01,0,-219,-67,123,0.14,0.03,0.02
852,-358,16840,0,0,0,-217,-81,116,0.17,-0.18,-0.09
808,-346,16952,0,0,0.01,-236,-73,123,-0.12,-0.06,0.02
610,-464,17146,-0.01,-0.01,0.02,-232,-75,122,-0.06,-0.09,0
864,-350,16778,0,0,0,-231,-55,123,-0.05,0.21,0.02
708,-334,16720,-0.01,0,0,-240,-55,124,-0.18,0.21,0.03
788,-266,16794,0,0,0,-227,-71,123,0.02,-0.03,0.02
836,-260,16808,0,0,0,-225,-61,129,0.05,0.12,0.11
880,-342,16770,0,0,0,-228,-79,125,0,-0.15,0.05
834,-382,16790,0,0,0,-243,-72,121,-0.23,-0.05,-0.02
760,-362,16762,0,0,0,-222,-73,130,0.09,-0.06,0.12
810,-322,16758,0,0,0,-219,-81,111,0.14,-0.18,-0.17
868,-384,16744,0,0,0,-231,-59,125,-0.05,0.15,0.05
840,-408,16802,0,0,0,-248,-74,125,-0.31,-0.08,0.05
784,-260,16846,0,0,0,-226,-81,121,0.03,-0.18,-0.02
724,-294,16748,-0.01,0,0,-221,-55,122,0.11,0.21,0
884,-260,16916,0,0,0.01,-231,-76,126,-0.05,-0.11,0.06
870,-354,16772,0,0,0,-232,-64,122,-0.06,0.08,0
764,-358,16774,0,0,0,-227,-70,129,0.02,-0.02,0.11
710,-224,16690,-0.01,0.01,-0.01,-243,-73,120,-0.23,-0.06,-0.03
834,-344,16798,0,0,0,-226,-66,124,0.03,0.05,0.03
828,-336,16786,0,0,0,-216,-67,123,0.18,0.03,0.02
890,-194,16666,0,0.01,-0.01,-238,-58,126,-0.15,0.17,0.06
818,-492,16760,0,-0.01,0,-221,-54,127,0.11,0.23,0.08
794,-200,16728,0,0.01,0,-218,-76,124,0.15,-0.11,0.03
792,-554,16690,0,-0.01,-0.01,-243,-76,131,-0.23,-0.11,0.14
846,-316,16814,0,0,0,-224,-77,122,0.06,-0.12,0
856,-354,16742,0,0,0,-233,-71,119,-0.08,-0.03,-0.05
784,-306,16784,0,0,0,-230,-73,116,-0.03,-0.06,-0.09
736,-312,16790,0,0,0,-230,-61,116,-0.03,0.12,-0.09
740,-342,16714,0,0,0,-223,-72,117,0.08,-0.05,-0.08
848,-354,16776,0,0,0,-227,-74,126,0.02,-0.08,0.06
876,-292,16696,0,0,-0.01,-223,-79,115,0.08,-0.15,-0.11
808,-312,16734,0,0,0,-230,-62,125,-0.03,0.11,0.05
846,-282,16792,0,0,0,-227,-59,114,0.02,0.15,-0.12
830,-256,16814,0,0,0,-228,-64,113,0,0.08,-0.14
860,-506,16832,0,-0.01,0,-235,-59,112,-0.11,0.15,-0.15
878,-256,16714,0,0,0,-235,-76,123,-0.11,-0.11,0.02
780,-364,16842,0,0,0,-228,-71,125,0,-0.03,0.05
866,-286,16674,0,0,-0.01,-224,-71,123,0.06,-0.03,0.02
774,-394,16712,0,0,0,-240,-72,116,-0.18,-0.05,-0.09
824,-330,16908,0,0,0.01,-226,-64,119,0.03,0.08,-0.05
794,-382,16744,0,0,0,-213,-62,126,0.23,0.11,0.06
844,-416,16834,0,-0.01,0,-224,-77,128,0.06,-0.12,0.09
836,-250,16750,0,0,0,-223,-79,121,0.08,-0.15,-0.02
788,-452,16730,0,-0.01,0,-237,-70,117,-0.14,-0.02,-0.08
734,-366,16800,-0.01,0,0,-222,-88,124,0.09,-0.29,0.03
898,-246,16788,0,0,0,-234,-65,117,-0.09,0.06,-0.08
702,-392,16840,-0.01,0,0,-232,-64,123,-0.06,0.08,0.02
732,-296,16792,-0.01,0,0,-222,-64,123,0.09,0.08,0.02
742,-354,16842,0,0,0,-224,-68,124,0.06,0.02,0.03
692,-454,16862,-0.01,-0.01,0,-226,-72,124,0.03,-0.05,0.03
864,-118,16740,0,0.01,0,-235,-73,129,-0.11,-0.06,0.11
750,-302,16788,0,0,0,-237,-69,126,-0.14,0,0.06
902,-180,16794,0.01,0.01,0,-220,-84,118,0.12,-0.23,-0.06
812,-284,16840,0,0,0,-233,-67,132,-0.08,0.03,0.15
836,-294,16694,0,0,-0.01,-233,-51,117,-0.08,0.27,-0.08
768,-322,16808,0,0,0,-234,-62,131,-0.09,0.11,0.14
726,-326,16748,-0.01,0,0,-223,-77,128,0.08,-0.12,0.09
780,-436,16750,0,-0.01,0,-229,-68,118,-0.02,0.02,-0.06
818,-242,16912,0,0.01,0.01,-211,-90,123,0.26,-0.32,0.02
840,-326,16824,0,0,0,-232,-61,118,-0.06,0.12,-0.06
800,-212,16764,0,0.01,0,-224,-70,129,0.06,-0.02,0.11
746,-450,16740,0,-0.01,0,-228,-45,122,0,0.37,0
856,-418,16770,0,-0.01,0,-225,-64,120,0.05,0.08,-0.03
844,-382,16694,0,0,-0.01,-224,-67,132,0.06,0.03,0.15
868,-160,16786,0,0.01,0,-234,-60,121,-0.09,0.14,-0.02
718,-570,16792,-0.01,-0.01,0,-222,-52,119,0.09,0.26,-0.05
942,-132,16772,0.01,0.01,0,-234,-65,114,-0.09,0.06,-0.12
778,-586,16680,0,-0.02,-0.01,-244,-61,132,-0.24,0.12,0.15
772,-186,16784,0,0.01,0,-218,-86,132,0.15,-0.26,0.15
814,-408,16874,0,0,0,-223,-67,114,0.08,0.03,-0.12
900,-190,16816,0.01,0.01,0,-220,-84,127,0.12,-0.23,0.08
818,-310,16828,0,0,0,-245,-53,119,-0.26,0.24,-0.05
712,-248,16794,-0.01,0,0,-220,-76,118,0.12,-0.11,-0.06
830,-248,16812,0,0,0,-232,-66,116,-0.06,0.05,-0.09
772,-502,16740,0,-0.01,0,-219,-75,126,0.14,-0.09,0.06
852,-178,16692,0,0.01,-0.01,-230,-66,130,-0.03,0.05,0.12
752,-464,16858,0,-0.01,0,-227,-70,116,0.02,-0.02,-0.09
804,-288,16796,0,0,0,-219,-61,123,0.14,0.12,0.02
738,-388,16778,0,0,0,-238,-69,124,-0.15,0,0.03
904,-346,16802,0.01,0,0,-221,-66,120,0.11,0.05,-0.03
776,-384,16778,0,0,0,-225,-73,114,0.05,-0.06,-0.12
816,-330,16768,0,0,0,-222,-77,127,0.09,-0.12,0.08
814,-354,16852,0,0,0,-229,-74,121,-0.02,-0.08,-0.02
878,-262,16820,0,0,0,-227,-72,117,0.02,-0.05,-0.08
810,-352,16688,0,0,-0.01,-226,-59,130,0.03,0.15,0.12
766,-298,16764,0,0,0,-234,-76,116,-0.09,-0.11,-0.09
912,-308,16734,0.01,0,0,-232,-66,125,-0.06,0.05,0.05
830,-344,16860,0,0,0,-219,-69,131,0.14,0,0.14
892,-346,16800,0,0,0,-224,-70,115,0.06,-0.02,-0.11
822,-350,16778,0,0,0,-228,-72,122,0,-0.05,0
864,-278,16730,0,0,0,-233,-61,116,-0.08,0.12,-0.09
780,-400,16784,0,0,0,-222,-69,128,0.09,0,0.09
844,-314,16754,0,0,0,-221,-67,121,0.11,0.03,-0.02
892,-300,16708,0,0,-0.01,-227,-61,117,0.02,0.12,-0.08
802,-346,16776,0,0,0,-222,-72,116,0.09,-0.05,-0.09
840,-334,16816,0,0,0,-231,-77,118,-0.05,-0.12,-0.06
860,-388,16834,0,0,0,-228,-73,122,0,-0.06,0
868,-342,16848,0,0,0,-231,-70,116,-0.05,-0.02,-0.09
796,-246,16796,0,0,0,-227,-66,125,0.02,0.05,0.05
730,-306,16942,-0.01,0,0.01,-226,-65,124,0.03,0.06,0.03
834,-320,16786,0,0,0,-233,-68,121,-0.08,0.02,-0.02
756,-252,16882,0,0,0.01,-228,-69,122,0,0,0
832,-350,16912,0,0,0.01,-234,-69,122,-0.09,0,0
808,-320,16866,0,0,0,-231,-68,124,-0.05,0.02,0.03
872,-276,16612,0,0,-0.01,-233,-72,119,-0.08,-0.05,-0.05
802,-378,16764,0,0,0,-231,-75,121,-0.05,-0.09,-0.02
800,-338,16926,0,0,0.01,-231,-75,128,-0.05,-0.09,0.09
786,-316,16826,0,0,0,-228,-65,123,0,0.06,0.02
806,-394,16756,0,0,0,-227,-59,120,0.02,0.15,-0.03
818,-256,16754,0,0,0,-227,-70,114,0.02,-0.02,-0.12
828,-370,16852,0,0,0,-236,-67,137,-0.12,0.03,0.23
800,-314,16890,0,0,0.01,-236,-73,126,-0.12,-0.06,0.06
754,-428,16846,0,-0.01,0,-226,-66,121,0.03,0.05,-0.02
798,-316,16766,0,0,0,-224,-75,121,0.06,-0.09,-0.02
864,-324,16822,0,0,0,-221,-71,128,0.11,-0.03,0.09
802,-318,16610,0,0,-0.01,-221,-72,131,0.11,-0.05,0.14
848,-302,16844,0,0,0,-224,-68,119,0.06,0.02,-0.05
848,-258,16768,0,0,0,-226,-67,119,0.03,0.03,-0.05
800,-336,16832,0,0,0,-220,-73,120,0.12,-0.06,-0.03
802,-344,16738,0,0,0,-230,-68,122,-0.03,0.02,0
796,-260,16714,0,0,0,-234,-78,117,-0.09,-0.14,-0.08
730,-360,16880,-0.01,0,0.01,-223,-79,123,0.08,-0.15,0.02
778,-376,16792,0,0,0,-221,-81,122,0.11,-0.18,0
848,-316,16782,0,0,0,-233,-59,127,-0.08,0.15,0.08
780,-278,16848,0,0,0,-230,-72,122,-0.03,-0.05,0
864,-350,16734,0,0,0,-228,-67,127,0,0.03,0.08
868,-360,16780,0,0,0,-230,-73,130,-0.03,-0.06,0.12
812,-328,16830,0,0,0,-235,-69,124,-0.11,0,0.03
782,-234,16818,0,0.01,0,-226,-71,125,0.03,-0.03,0.05
782,-246,16702,0,0,-0.01,-227,-72,118,0.02,-0.05,-0.06
844,-296,16786,0,0,0,-227,-69,127,0.02,0,0.08
768,-318,16792,0,0,0,-230,-67,127,-0.03,0.03,0.08
862,-300,16778,0,0,0,-223,-75,122,0.08,-0.09,0
778,-390,16698,0,0,-0.01,-229,-65,116,-0.02,0.06,-0.09
772,-362,16856,0,0,0,-235,-66,126,-0.11,0.05,0.06
814,-336,16776,0,0,0,-221,-64,122,0.11,0.08,0
812,-328,16794,0,0,0,-232,-67,127,-0.06,0.03,0.08
818,-328,16928,0,0,0.01,-230,-61,124,-0.03,0.12,0.03
780,-372,16772,0,0,0,-219,-74,126,0.14,-0.08,0.06
764,-386,16792,0,0,0,-240,-57,123,-0.18,0.18,0.02
754,-304,16858,0,0,0,-235,-69,130,-0.11,0,0.12
738,-322,16674,0,0,-0.01,-222,-66,129,0.09,0.05,0.11
810,-322,16744,0,0,0,-223,-66,129,0.08,0.05,0.11
808,-294,16732,0,0,0,-227,-74,121,0.02,-0.08,-0.02
818,-372,16820,0,0,0,-236,-74,126,-0.12,-0.08,0.06
760,-288,16844,0,0,0,-233,-74,127,-0.08,-0.08,0.08
774,-334,16740,0,0,0,-225,-72,126,0.05,-0.05,0.06
816,-270,16742,0,0,0,-224,-62,123,0.06,0.11,0.02
836,-396,16788,0,0,0,-230,-75,121,-0.03,-0.09,-0.02
770,-304,16782,0,0,0,-229,-68,116,-0.02,0.02,-0.09
784,-328,16900,0,0,0.01,-233,-67,125,-0.08,0.03,0.05
810,-244,16830,0,0.01,0,-234,-65,114,-0.09,0.06,-0.12
862,-356,16808,0,0,0,-224,-83,130,0.06,-0.21,0.12
806,-290,16832,0,0,0,-233,-70,124,-0.08,-0.02,0.03
902,-338,16860,0.01,0,0,-221,-77,119,0.11,-0.12,-0.05
852,-354,16810,0,0,0,-224,-65,124,0.06,0.06,0.03
798,-378,16744,0,0,0,-229,-66,119,-0.02,0.05,-0.05
762,-396,16716,0,0,0,-234,-66,119,-0.09,0.05,-0.05
822,-290,16700,0,0,-0.01,-227,-70,125,0.02,-0.02,0.05
890,-348,16786,0,0,0,-230,-74,123,-0.03,-0.08,0.02
822,-312,16838,0,0,0,-227,-69,120,0.02,0,-0.03
816,-248,16794,0,0,0,-233,-62,123,-0.08,0.11,0.02
776,-302,16728,0,0,0,-235,-75,129,-0.11,-0.09,0.11
856,-324,16862,0,0,0,-232,-79,126,-0.06,-0.15,0.06
846,-348,16702,0,0,-0.01,-233,-69,124,-0.08,0,0.03
868,-442,16768,0,-0.01,0,-228,-70,123,0,-0.02,0.02
836,-390,16840,0,0,0,-228,-72,123,0,-0.05,0.02
784,-360,16720,0,0,0,-223,-62,125,0.08,0.11,0.05
844,-328,16778,0,0,0,-229,-74,121,-0.02,-0.08,-0.02
808,-262,16870,0,0,0,-222,-69,116,0.09,0,-0.09
760,-342,16826,0,0,0,-231,-67,120,-0.05,0.03,-0.03
764,-312,16742,0,0,0,-241,-78,127,-0.2,-0.14,0.08
824,-240,16692,0,0.01,-0.01,-235,-80,122,-0.11,-0.17,0
776,-392,16794,0,0,0,-223,-70,129,0.08,-0.02,0.11
828,-280,16908,0,0,0.01,-226,-68,120,0.03,0.02,-0.03
796,-384,16764,0,0,0,-227,-78,130,0.02,-0.14,0.12
796,-352,16772,0,0,0,-233,-66,123,-0.08,0.05,0.02
822,-348,16740,0,0,0,-248,-65,120,-0.31,0.06,-0.03
714,-352,16786,-0.01,0,0,-235,-65,120,-0.11,0.06,-0.03
748,-296,16686,0,0,-0.01,-234,-70,118,-0.09,-0.02,-0.06
792,-312,16766,0,0,0,-229,-60,124,-0.02,0.14,0.03
806,-296,16812,0,0,0,-234,-73,119,-0.09,-0.06,-0.05
848,-334,16680,0,0,-0.01,-234,-75,121,-0.09,-0.09,-0.02
800,-260,16720,0,0,0,-226,-69,121,0.03,0,-0.02
824,-324,16770,0,0,0,-221,-74,118,0.11,-0.08,-0.06
810,-288,16898,0,0,0.01,-222,-75,123,0.09,-0.09,0.02
880,-370,16854,0,0,0,-230,-66,127,-0.03,0.05,0.08
780,-322,16722,0,0,0,-220,-68,119,0.12,0.02,-0.05
808,-286,16680,0,0,-0.01,-227,-69,119,0.02,0,-0.05
924,-298,16868,0.01,0,0,-232,-64,127,-0.06,0.08,0.08
778,-312,16744,0,0,0,-227,-70,124,0.02,-0.02,0.03
820,-336,16674,0,0,-0.01,-224,-71,130,0.06,-0.03,0.12
796,-338,16800,0,0,0,-229,-66,119,-0.02,0.05,-0.05
792,-370,16786,0,0,0,-228,-72,120,0,-0.05,-0.03
890,-338,16782,0,0,0,-232,-68,119,-0.06,0.02,-0.05
850,-360,16836,0,0,0,-226,-71,123,0.03,-0.03,0.02
804,-304,16844,0,0,0,-233,-68,127,-0.08,0.02,0.08
832,-320,16744,0,0,0,-233,-68,122,-0.08,0.02,0
824,-312,16782,0,0,0,-229,-65,126,-0.02,0.06,0.06
810,-330,16746,0,0,0,-225,-69,117,0.05,0,-0.08
842,-386,16874,0,0,0,-225,-75,114,0.05,-0.09,-0.12
812,-364,16850,0,0,0,-238,-68,115,-0.15,0.02,-0.11
786,-308,16884,0,0,0.01,-231,-81,121,-0.05,-0.18,-0.02
820,-382,16800,0,0,0,-234,-72,118,-0.09,-0.05,-0.06
888,-340,16660,0,0,-0.01,-229,-64,125,-0.02,0.08,0.05
824,-304,16852,0,0,0,-233,-67,125,-0.08,0.03,0.05
774,-310,16890,0,0,0.01,-228,-75,121,0,-0.09,-0.02
804,-304,16602,0,0,-0.01,-226,-76,125,0.03,-0.11,0.05
686,-276,16852,-0.01,0,0,-222,-78,127,0.09,-0.14,0.08
880,-252,16832,0,0,0,-231,-56,120,-0.05,0.2,-0.03
812,-354,16880,0,0,0.01,-229,-64,116,-0.02,0.08,-0.09
834,-320,16856,0,0,0,-225,-62,125,0.05,0.11,0.05
894,-252,16688,0,0,-0.01,-217,-68,126,0.17,0.02,0.06
784,-364,16720,0,0,0,-226,-67,123,0.03,0.03,0.02
848,-288,16772,0,0,0,-231,-79,124,-0.05,-0.15,0.03
884,-274,16890,0,0,0.01,-223,-70,121,0.08,-0.02,-0.02
850,-372,16790,0,0,0,-225,-73,124,0.05,-0.06,0.03
836,-266,16884,0,0,0.01,-222,-64,126,0.09,0.08,0.06
754,-290,16836,0,0,0,-225,-64,118,0.05,0.08,-0.06
824,-412,16842,0,-0.01,0,-224,-83,124,0.06,-0.21,0.03
860,-346,16784,0,0,0,-226,-73,112,0.03,-0.06,-0.15
866,-296,16806,0,0,0,-229,-69,119,-0.02,0,-0.05
804,-340,16776,0,0,0,-232,-60,125,-0.06,0.14,0.05
852,-322,16782,0,0,0,-231,-66,122,-0.05,0.05,0
854,-324,16876,0,0,0.01,-236,-69,119,-0.12,0,-0.05
804,-352,16792,0,0,0,-234,-61,118,-0.09,0.12,-0.06
758,-382,16844,0,0,0,-229,-75,124,-0.02,-0.09,0.03
808,-336,16932,0,0,0.01,-231,-60,120,-0.05,0.14,-0.03
802,-348,16794,0,0,0,-229,-63,125,-0.02,0.09,0.05
822,-320,16710,0,0,-0.01,-229,-77,125,-0.02,-0.12,0.05
802,-334,16802,0,0,0,-227,-56,126,0.02,0.2,0.06
836,-300,16782,0,0,0,-230,-69,124,-0.03,0,0.03
792,-310,16836,0,0,0,-227,-72,116,0.02,-0.05,-0.09
856,-260,16804,0,0,0,-235,-72,118,-0.11,-0.05,-0.06
852,-428,16864,0,-0.01,0,-221,-69,125,0.11,0,0.05
846,-266,16670,0,0,-0.01,-227,-59,131,0.02,0.15,0.14
830,-314,16654,0,0,-0.01,-230,-71,112,-0.03,-0.03,-0.15
836,-310,16688,0,0,-0.01,-227,-66,114,0.02,0.05,-0.12
852,-280,16812,0,0,0,-237,-67,121,-0.14,0.03,-0.02
890,-280,16824,0,0,0,-226,-76,124,0.03,-0.11,0.03
778,-274,16742,0,0,0,-235,-64,121,-0.11,0.08,-0.02
812,-274,16736,0,0,0,-227,-67,122,0.02,0.03,0
764,-296,16686,0,0,-0.01,-237,-75,115,-0.14,-0.09,-0.11
800,-358,16812,0,0,0,-235,-75,130,-0.11,-0.09,0.12
818,-362,16780,0,0,0,-230,-70,127,-0.03,-0.02,0.08
830,-238,16828,0,0.01,0,-231,-65,126,-0.05,0.06,0.06
752,-330,16838,0,0,0,-235,-74,126,-0.11,-0.08,0.06
788,-260,16732,0,0,0,-233,-66,120,-0.08,0.05,-0.03
842,-344,16908,0,0,0.01,-222,-64,128,0.09,0.08,0.09
818,-366,16726,0,0,0,-227,-68,119,0.02,0.02,-0.05
794,-290,16774,0,0,0,-235,-67,124,-0.11,0.03,0.03
860,-318,16826,0,0,0,-226,-78,131,0.03,-0.14,0.14
862,-432,16666,0,-0.01,-0.01,-229,-78,115,-0.02,-0.14,-0.11
782,-346,16790,0,0,0,-229,-72,117,-0.02,-0.05,-0.08
794,-324,16710,0,0,-0.01,-232,-58,111,-0.06,0.17,-0.17
872,-364,16824,0,0,0,-214,-64,124,0.21,0.08,0.03
774,-310,16708,0,0,-0.01,-226,-78,126,0.03,-0.14,0.06
720,-294,16838,-0.01,0,0,-215,-73,125,0.2,-0.06,0.05
806,-282,16696,0,0,-0.01,-229,-67,130,-0.02,0.03,0.12
782,-312,16796,0,0,0,-234,-70,114,-0.09,-0.02,-0.12
860,-224,16720,0,0.01,0,-224,-64,122,0.06,0.08,0
776,-296,16890,0,0,0.01,-228,-60,125,0,0.14,0.05
806,-302,16912,0,0,0.01,-227,-61,123,0.02,0.12,0.02
830,-322,16830,0,0,0,-224,-60,123,0.06,0.14,0.02
818,-326,16814,0,0,0,-237,-73,133,-0.14,-0.06,0.17
762,-326,16776,0,0,0,-229,-67,129,-0.02,0.03,0.11
824,-310,16844,0,0,0,-225,-67,126,0.05,0.03,0.06
882,-300,16864,0,0,0,-230,-68,125,-0.03,0.02,0.05
746,-314,16758,0,0,0,-233,-79,126,-0.08,-0.15,0.06
824,-318,16738,0,0,0,-238,-74,123,-0.15,-0.08,0.02
808,-302,16736,0,0,0,-226,-60,116,0.03,0.14,-0.09
760,-350,16800,0,0,0,-226,-75,119,0.03,-0.09,-0.05
804,-262,16830,0,0,0,-224,-65,122,0.06,0.06,0
834,-364,16806,0,0,0,-237,-69,120,-0.14,0,-0.03
814,-318,16722,0,0,0,-229,-69,125,-0.02,0,0.05
712,-358,16826,-0.01,0,0,-227,-77,121,0.02,-0.12,-0.02
878,-318,16832,0,0,0,-226,-72,130,0.03,-0.05,0.12
838,-260,16790,0,0,0,-227,-70,118,0.02,-0.02,-0.06
824,-344,16786,0,0,0,-227,-63,126,0.02,0.09,0.06
876,-330,16756,0,0,0,-224,-78,116,0.06,-0.14,-0.09
752,-286,16830,0,0,0,-225,-69,119,0.05,0,-0.05
786,-296,16790,0,0,0,-226,-65,116,0.03,0.06,-0.09
854,-338,16712,0,0,0,-231,-67,118,-0.05,0.03,-0.06
806,-386,16778,0,0,0,-238,-71,125,-0.15,-0.03,0.05
826,-300,16800,0,0,0,-228,-69,128,0,0,0.09
772,-372,16810,0,0,0,-229,-63,118,-0.02,0.09,-0.06
796,-372,16760,0,0,0,-230,-67,130,-0.03,0.03,0.12
814,-304,16806,0,0,0,-229,-70,126,-0.02,-0.02,0.06
756,-304,16792,0,0,0,-230,-59,121,-0.03,0.15,-0.02
820,-274,16800,0,0,0,-225,-70,128,0.05,-0.02,0.09
860,-360,16670,0,0,-0.01,-234,-64,124,-0.09,0.08,0.03
846,-310,16900,0,0,0.01,-218,-60,120,0.15,0.14,-0.03
816,-256,16844,0,0,0,-223,-70,134,0.08,-0.02,0.18
824,-340,16712,0,0,0,-223,-63,122,0.08,0.09,0
840,-366,16948,0,0,0.01,-230,-64,124,-0.03,0.08,0.03
802,-394,16950,0,0,0.01,-227,-72,122,0.02,-0.05,0
818,-268,16764,0,0,0,-237,-74,115,-0.14,-0.08,-0.11
814,-364,16846,0,0,0,-232,-67,121,-0.06,0.03,-0.02
858,-318,16798,0,0,0,-237,-80,125,-0.14,-0.17,0.05
890,-360,16756,0,0,0,-228,-69,129,0,0,0.11
876,-338,16756,0,0,0,-226,-64,116,0.03,0.08,-0.09
822,-354,16842,0,0,0,-228,-70,119,0,-0.02,-0.05
818,-282,16786,0,0,0,-230,-76,117,-0.03,-0.11,-0.08
822,-312,16810,0,0,0,-225,-77,121,0.05,-0.12,-0.02
766,-304,16886,0,0,0.01,-238,-72,123,-0.15,-0.05,0.02
828,-324,16706,0,0,-0.01,-227,-63,123,0.02,0.09,0.02
760,-320,16706,0,0,-0.01,-224,-76,131,0.06,-0.11,0.14
836,-354,16958,0,0,0.01,-232,-74,119,-0.06,-0.08,-0.05
862,-368,16784,0,0,0,-234,-71,121,-0.09,-0.03,-0.02
816,-286,16718,0,0,0,-227,-71,131,0.02,-0.03,0.14
850,-260,16784,0,0,0,-229,-68,129,-0.02,0.02,0.11
784,-382,16822,0,0,0,-218,-71,120,0.15,-0.03,-0.03
876,-408,16810,0,0,0,-233,-77,119,-0.08,-0.12,-0.05
914,-316,16778,0.01,0,0,-237,-63,122,-0.14,0.09,0
858,-316,16834,0,0,0,-225,-76,113,0.05,-0.11,-0.14
788,-300,16872,0,0,0,-229,-64,124,-0.02,0.08,0.03
772,-352,16694,0,0,-0.01,-233,-66,122,-0.08,0.05,0
764,-296,16772,0,0,0,-228,-72,120,0,-0.05,-0.03
850,-268,16764,0,0,0,-235,-72,124,-0.11,-0.05,0.03
772,-296,16790,0,0,0,-234,-72,113,-0.09,-0.05,-0.14
852,-308,16780,0,0,0,-228,-70,124,0,-0.02,0.03
748,-332,16830,0,0,0,-219,-66,121,0.14,0.05,-0.02
806,-286,16762,0,0,0,-225,-70,118,0.05,-0.02,-0.06
806,-280,16774,0,0,0,-221,-77,119,0.11,-0.12,-0.05
876,-294,16788,0,0,0,-219,-69,112,0.14,0,-0.15
770,-314,16720,0,0,0,-234,-55,120,-0.09,0.21,-0.03
838,-370,16786,0,0,0,-229,-77,121,-0.02,-0.12,-0.02
762,-316,16886,0,0,0.01,-232,-74,127,-0.06,-0.08,0.08
792,-328,16750,0,0,0,-219,-65,130,0.14,0.06,0.12
854,-324,16762,0,0,0,-219,-75,123,0.14,-0.09,0.02
768,-358,16884,0,0,0.01,-228,-74,122,0,-0.08,0
854,-306,16800,0,0,0,-226,-68,125,0.03,0.02,0.05
886,-316,16800,0,0,0,-227,-65,118,0.02,0.06,-0.06
792,-306,16780,0,0,0,-226,-72,129,0.03,-0.05,0.11
824,-324,16824,0,0,0,-232,-64,121,-0.06,0.08,-0.02
808,-360,16726,0,0,0,-213,-66,121,0.23,0.05,-0.02
914,-322,16780,0.01,0,0,-222,-72,112,0.09,-0.05,-0.15
820,-384,16764,0,0,0,-228,-71,122,0,-0.03,0
910,-358,16664,0.01,0,-0.01,-227,-70,115,0.02,-0.02,-0.11
808,-276,16750,0,0,0,-226,-62,122,0.03,0.11,0
842,-318,16820,0,0,0,-238,-70,123,-0.15,-0.02,0.02
848,-316,16848,0,0,0,-221,-71,123,0.11,-0.03,0.02
858,-284,16914,0,0,0.01,-230,-75,125,-0.03,-0.09,0.05
738,-354,16782,0,0,0,-235,-73,122,-0.11,-0.06,0
866,-242,16722,0,0.01,0,-234,-62,121,-0.09,0.11,-0.02
812,-382,16802,0,0,0,-231,-61,129,-0.05,0.12,0.11
794,-322,16800,0,0,0,-227,-70,120,0.02,-0.02,-0.03
868,-316,16874,0,0,0,-222,-62,134,0.09,0.11,0.18
806,-300,16836,0,0,0,-222,-68,117,0.09,0.02,-0.08
760,-264,16806,0,0,0,-222,-75,120,0.09,-0.09,-0.03
754,-304,16822,0,0,0,-224,-64,122,0.06,0.08,0
792,-374,16814,0,0,0,-235,-75,123,-0.11,-0.09,0.02
886,-336,16790,0,0,0,-219,-70,117,0.14,-0.02,-0.08
770,-346,16794,0,0,0,-225,-66,128,0.05,0.05,0.09
752,-336,16870,0,0,0,-230,-68,123,-0.03,0.02,0.02
836,-294,16838,0,0,0,-231,-72,121,-0.05,-0.05,-0.02
840,-344,16768,0,0,0,-222,-64,119,0.09,0.08,-0.05
778,-330,16852,0,0,0,-229,-75,122,-0.02,-0.09,0
846,-332,16624,0,0,-0.01,-228,-60,120,0,0.14,-0.03
736,-258,16728,0,0,0,-229,-69,122,-0.02,0,0
770,-288,16718,0,0,0,-226,-69,116,0.03,0,-0.09
832,-314,16846,0,0,0,-224,-71,132,0.06,-0.03,0.15
896,-264,16750,0,0,0,-226,-64,115,0.03,0.08,-0.11
820,-286,16750,0,0,0,-229,-69,128,-0.02,0,0.09
888,-316,16856,0,0,0,-228,-77,133,0,-0.12,0.17
856,-330,16746,0,0,0,-231,-66,131,-0.05,0.05,0.14
816,-348,16722,0,0,0,-227,-67,132,0.02,0.03,0.15
810,-308,16724,0,0,0,-225,-70,124,0.05,-0.02,0.03
800,-294,16814,0,0,0,-233,-72,126,-0.08,-0.05,0.06
830,-384,16766,0,0,0,-231,-72,122,-0.05,-0.05,0
798,-390,16822,0,0,0,-218,-71,128,0.15,-0.03,0.09
834,-392,16776,0,0,0,-227,-67,113,0.02,0.03,-0.14
822,-288,16820,0,0,0,-236,-75,116,-0.12,-0.09,-0.09
840,-424,16864,0,-0.01,0,-219,-71,117,0.14,-0.03,-0.08
782,-258,16720,0,0,0,-229,-71,125,-0.02,-0.03,0.05
818,-274,16834,0,0,0,-231,-81,131,-0.05,-0.18,0.14
844,-340,16816,0,0,0,-232,-72,121,-0.06,-0.05,-0.02
766,-298,16778,0,0,0,-219,-66,126,0.14,0.05,0.06
780,-250,16728,0,0,0,-230,-71,131,-0.03,-0.03,0.14
784,-206,16722,0,0.01,0,-232,-77,113,-0.06,-0.12,-0.14
844,-372,16804,0,0,0,-237,-70,120,-0.14,-0.02,-0.03
786,-350,16700,0,0,-0.01,-221,-72,121,0.11,-0.05,-0.02
896,-258,16840,0,0,0,-230,-68,121,-0.03,0.02,-0.02
806,-260,16852,0,0,0,-231,-73,126,-0.05,-0.06,0.06
832,-324,16814,0,0,0,-225,-70,127,0.05,-0.02,0.08
830,-324,16722,0,0,0,-230,-68,118,-0.03,0.02,-0.06
792,-386,16778,0,0,0,-233,-73,126,-0.08,-0.06,0.06
772,-360,16780,0,0,0,-222,-75,122,0.09,-0.09,0
768,-360,16790,0,0,0,-235,-65,122,-0.11,0.06,0
780,-310,16828,0,0,0,-224,-65,122,0.06,0.06,0
870,-318,16884,0,0,0.01,-226,-82,123,0.03,-0.2,0.02
882,-286,16750,0,0,0,-229,-72,123,-0.02,-0.05,0.02
768,-346,16820,0,0,0,-217,-72,128,0.17,-0.05,0.09
808,-310,16900,0,0,0.01,-230,-79,125,-0.03,-0.15,0.05
860,-256,16736,0,0,0,-225,-69,126,0.05,0,0.06
758,-320,16890,0,0,0.01,-223,-70,118,0.08,-0.02,-0.06
776,-404,16706,0,0,-0.01,-231,-66,125,-0.05,0.05,0.05
844,-280,16742,0,0,0,-224,-66,122,0.06,0.05,0
838,-298,16854,0,0,0,-224,-82,125,0.06,-0.2,0.05
834,-322,16774,0,0,0,-227,-64,127,0.02,0.08,0.08
862,-394,16732,0,0,0,-229,-72,122,-0.02,-0.05,0
808,-262,16730,0,0,0,-223,-71,122,0.08,-0.03,0
728,-308,16886,-0.01,0,0.01,-229,-82,121,-0.02,-0.2,-0.02
840,-326,16718,0,0,0,-227,-63,112,0.02,0.09,-0.15
800,-382,16720,0,0,0,-238,-64,115,-0.15,0.08,-0.11
774,-246,16872,0,0,0,-221,-71,120,0.11,-0.03,-0.03
860,-298,16666,0,0,-0.01,-225,-58,120,0.05,0.17,-0.03
822,-270,16778,0,0,0,-223,-74,123,0.08,-0.08,0.02
758,-354,16900,0,0,0.01,-229,-77,126,-0.02,-0.12,0.06
874,-400,16862,0,0,0,-228,-61,129,0,0.12,0.11
838,-290,16628,0,0,-0.01,-228,-73,121,0,-0.06,-0.02
824,-296,16768,0,0,0,-238,-68,115,-0.15,0.02,-0.11
844,-326,16830,0,0,0,-234,-60,123,-0.09,0.14,0.02
826,-394,16812,0,0,0,-227,-72,130,0.02,-0.05,0.12
824,-190,16820,0,0.01,0,-230,-69,119,-0.03,0,-0.05
676,-372,16864,-0.01,0,0,-227,-75,130,0.02,-0.09,0.12
768,-374,16784,0,0,0,-222,-66,126,0.09,0.05,0.06
794,-266,16680,0,0,-0.01,-228,-60,121,0,0.14,-0.02
704,-340,16704,-0.01,0,-0.01,-226,-69,117,0.03,0,-0.08
836,-338,16696,0,0,-0.01,-223,-62,118,0.08,0.11,-0.06
826,-346,16916,0,0,0.01,-230,-67,119,-0.03,0.03,-0.05
834,-318,16756,0,0,0,-232,-72,125,-0.06,-0.05,0.05
796,-288,16754,0,0,0,-220,-76,120,0.12,-0.11,-0.03
774,-336,16814,0,0,0,-226,-64,122,0.03,0.08,0
860,-256,16728,0,0,0,-230,-77,124,-0.03,-0.12,0.03
798,-424,16770,0,-0.01,0,-226,-69,118,0.03,0,-0.06
840,-272,16790,0,0,0,-229,-74,125,-0.02,-0.08,0.05
742,-306,16982,0,0,0.01,-224,-55,122,0.06,0.21,0
798,-308,16722,0,0,0,-225,-71,122,0.05,-0.03,0
870,-300,16702,0,0,-0.01,-223,-73,116,0.08,-0.06,-0.09
768,-264,16818,0,0,0,-230,-71,128,-0.03,-0.03,0.09
768,-332,16886,0,0,0.01,-226,-66,126,0.03,0.05,0.06
776,-282,16848,0,0,0,-229,-67,124,-0.02,0.03,0.03
800,-382,16674,0,0,-0.01,-229,-73,119,-0.02,-0.06,-0.05
854,-368,16780,0,0,0,-218,-68,125,0.15,0.02,0.05
780,-318,16800,0,0,0,-226,-61,123,0.03,0.12,0.02
782,-262,16920,0,0,0.01,-243,-63,125,-0.23,0.09,0.05
864,-356,16914,0,0,0.01,-230,-72,126,-0.03,-0.05,0.06
808,-370,16770,0,0,0,-229,-67,129,-0.02,0.03,0.11
844,-310,16738,0,0,0,-224,-73,121,0.06,-0.06,-0.02
788,-286,16760,0,0,0,-229,-70,128,-0.02,-0.02,0.09
796,-298,16672,0,0,-0.01,-230,-73,124,-0.03,-0.06,0.03
792,-212,16832,0,0.01,0,-225,-77,125,0.05,-0.12,0.05
850,-378,16772,0,0,0,-221,-63,121,0.11,0.09,-0.02
762,-304,16850,0,0,0,-224,-66,120,0.06,0.05,-0.03
810,-320,16754,0,0,0,-226,-68,123,0.03,0.02,0.02
780,-324,16856,0,0,0,-226,-65,123,0.03,0.06,0.02
770,-310,16872,0,0,0,-225,-65,119,0.05,0.06,-0.05
776,-352,16774,0,0,0,-228,-69,123,0,0,0.02
760,-330,16804,0,0,0,-228,-71,119,0,-0.03,-0.05
872,-360,16788,0,0,0,-223,-71,121,0.08,-0.03,-0.02
866,-290,16872,0,0,0,-231,-82,124,-0.05,-0.2,0.03
774,-322,16662,0,0,-0.01,-220,-67,121,0.12,0.03,-0.02
798,-296,16804,0,0,0,-230,-64,121,-0.03,0.08,-0.02
776,-296,16898,0,0,0.01,-228,-67,123,0,0.03,0.02
786,-312,16832,0,0,0,-223,-67,127,0.08,0.03,0.08
808,-314,16840,0,0,0,-226,-62,124,0.03,0.11,0.03
744,-316,16810,0,0,0,-237,-69,124,-0.14,0,0.03
796,-296,16820,0,0,0,-227,-67,118,0.02,0.03,-0.06
764,-340,16804,0,0,0,-227,-75,125,0.02,-0.09,0.05
790,-334,16908,0,0,0.01,-239,-73,122,-0.17,-0.06,0
816,-276,16852,0,0,0,-231,-69,116,-0.05,0,-0.09
796,-278,16766,0,0,0,-226,-56,117,0.03,0.2,-0.08
788,-318,16778,0,0,0,-232,-74,119,-0.06,-0.08,-0.05
882,-384,16750,0,0,0,-231,-72,119,-0.05,-0.05,-0.05
830,-394,16784,0,0,0,-225,-73,119,0.05,-0.06,-0.05
808,-360,16848,0,0,0,-229,-80,122,-0.02,-0.17,0
774,-340,16762,0,0,0,-229,-66,127,-0.02,0.05,0.08
864,-362,16756,0,0,0,-231,-62,127,-0.05,0.11,0.08
820,-344,16750,0,0,0,-229,-62,130,-0.02,0.11,0.12
794,-312,16870,0,0,0,-232,-61,121,-0.06,0.12,-0.02
836,-362,16760,0,0,0,-245,-75,118,-0.26,-0.09,-0.06
850,-356,16824,0,0,0,-229,-71,121,-0.02,-0.03,-0.02
736,-344,16766,0,0,0,-228,-73,121,0,-0.06,-0.02
864,-334,16792,0,0,0,-238,-74,118,-0.15,-0.08,-0.06
796,-254,16720,0,0,0,-227,-69,132,0.02,0,0.15
890,-294,16832,0,0,0,-228,-69,115,0,0,-0.11
764,-310,16798,0,0,0,-232,-67,129,-0.06,0.03,0.11
860,-356,16722,0,0,0,-234,-65,127,-0.09,0.06,0.08
842,-348,16876,0,0,0.01,-224,-66,121,0.06,0.05,-0.02
808,-272,16866,0,0,0,-237,-69,116,-0.14,0,-0.09
848,-292,16738,0,0,0,-226,-73,125,0.03,-0.06,0.05
836,-280,16816,0,0,0,-232,-62,124,-0.06,0.11,0.03
764,-330,16752,0,0,0,-226,-66,112,0.03,0.05,-0.15
774,-408,16784,0,0,0,-223,-66,129,0.08,0.05,0.11
748,-414,16880,0,-0.01,0.01,-222,-75,128,0.09,-0.09,0.09
836,-336,16756,0,0,0,-236,-69,110,-0.12,0,-0.18
812,-278,16806,0,0,0,-229,-75,125,-0.02,-0.09,0.05
762,-280,16800,0,0,0,-235,-70,119,-0.11,-0.02,-0.05
776,-292,16808,0,0,0,-227,-58,128,0.02,0.17,0.09
776,-342,16804,0,0,0,-231,-64,121,-0.05,0.08,-0.02
862,-388,16762,0,0,0,-230,-61,122,-0.03,0.12,0
792,-282,16822,0,0,0,-234,-75,123,-0.09,-0.09,0.02
840,-318,16704,0,0,-0.01,-228,-63,119,0,0.09,-0.05
766,-338,16704,0,0,-0.01,-227,-74,125,0.02,-0.08,0.05
812,-328,16816,0,0,0,-227,-75,125,0.02,-0.09,0.05
890,-318,16850,0,0,0,-220,-65,124,0.12,0.06,0.03
862,-402,16816,0,0,0,-228,-70,119,0,-0.02,-0.05
808,-318,16774,0,0,0,-235,-62,122,-0.11,0.11,0
836,-352,16680,0,0,-0.01,-234,-72,121,-0.09,-0.05,-0.02
814,-316,16884,0,0,0.01,-231,-69,125,-0.05,0,0.05
846,-308,16842,0,0,0,-237,-69,118,-0.14,0,-0.06
852,-312,16746,0,0,0,-240,-70,129,-0.18,-0.02,0.11
782,-316,16714,0,0,0,-229,-69,125,-0.02,0,0.05
752,-380,16752,0,0,0,-228,-72,128,0,-0.05,0.09
788,-344,16806,0,0,0,-221,-73,116,0.11,-0.06,-0.09
840,-300,16804,0,0,0,-227,-73,122,0.02,-0.06,0
802,-358,16840,0,0,0,-234,-68,122,-0.09,0.02,0
834,-338,16734,0,0,0,-227,-62,117,0.02,0.11,-0.08
824,-450,16756,0,-0.01,0,-232,-62,126,-0.06,0.11,0.06
812,-344,16724,0,0,0,-222,-66,123,0.09,0.05,0.02
832,-320,16850,0,0,0,-228,-66,123,0,0.05,0.02
804,-388,16734,0,0,0,-225,-60,126,0.05,0.14,0.06
786,-336,16864,0,0,0,-231,-75,125,-0.05,-0.09,0.05
824,-304,16802,0,0,0,-231,-69,122,-0.05,0,0
784,-320,16866,0,0,0,-226,-68,124,0.03,0.02,0.03
788,-322,16760,0,0,0,-231,-79,119,-0.05,-0.15,-0.05
786,-308,16754,0,0,0,-229,-75,140,-0.02,-0.09,0.27
780,-326,16700,0,0,-0.01,-220,-72,117,0.12,-0.05,-0.08
822,-344,16850,0,0,0,-232,-67,123,-0.06,0.03,0.02
912,-306,16742,0.01,0,0,-230,-78,123,-0.03,-0.14,0.02
848,-400,16824,0,0,0,-224,-70,120,0.06,-0.02,-0.03
756,-242,16794,0,0.01,0,-234,-75,117,-0.09,-0.09,-0.08
850,-370,16754,0,0,0,-226,-71,116,0.03,-0.03,-0.09
808,-270,16698,0,0,-0.01,-236,-75,127,-0.12,-0.09,0.08
860,-304,16934,0,0,0.01,-233,-73,122,-0.08,-0.06,0
892,-234,16794,0,0.01,0,-226,-72,122,0.03,-0.05,0
818,-314,16820,0,0,0,-230,-72,118,-0.03,-0.05,-0.06
804,-352,16770,0,0,0,-232,-70,118,-0.06,-0.02,-0.06
784,-366,16824,0,0,0,-232,-68,129,-0.06,0.02,0.11
884,-300,16728,0,0,0,-231,-62,120,-0.05,0.11,-0.03
866,-268,16754,0,0,0,-226,-75,122,0.03,-0.09,0
766,-378,16916,0,0,0.01,-228,-59,124,0,0.15,0.03
858,-270,16774,0,0,0,-234,-70,127,-0.09,-0.02,0.08
834,-330,16762,0,0,0,-234,-67,108,-0.09,0.03,-0.21
822,-232,16862,0,0.01,0,-231,-71,114,-0.05,-0.03,-0.12
810,-300,16820,0,0,0,-232,-70,109,-0.06,-0.02,-0.2
834,-330,16940,0,0,0.01,-220,-66,120,0.12,0.05,-0.03
838,-334,16828,0,0,0,-230,-70,124,-0.03,-0.02,0.03
,,,,,,,,,,,
,,,,,,,,,,,
,,,,,,,,,,,
,,,,,,,,,,,
,,,,,,,,,,,
,,,,,,,,,,,
,,,,,,,,,,,
,,,,,,,,,,,
,,,,,,,,,,,
,,,,,,,,,,,
,,,,,,,,,,,
,,,,,,,,,,,
,,,,,,,,,,,
,,,,,,,,,,,
,,,,,,,,,,,
,,,,,,,,,,,
,,,,,,,,,,,
,,,,,,,,,,,
,,,,,,,,,,,
,,,,,,,,,,,
,,,,,,,,,,,
,,,,,,,,,,,
,,,,,,,,,,,
,,,,,,,,,,,
,,,,,,,,,,,
,,,,,,,,,,,
,,,,,,,,,,,
,,,,,,,,,,,
,,,,,,,,,,,
,,,,,,,,,,,
,,,,,,,,,,,
,,,,,,,,,,,
,,,,,,,,,,,
,,,,,,,,,,,
,,,,,,,,,,,
,,,,,,,,,,,
,,,,,,,,,,,
,,,,,,,,,,,
,,,,,,,,,,,
,,,,,,,,,,,
,,,,,,,,,,,
,,,,,,,,,,,
,,,,,,,,,,,
,,,,,,,,,,,
,,,,,,,,,,,
,,,,,,,,,,,
,,,,,,,,,,,
,,,,,,,,,,,
,,,,,,,,,,,
,,,,,,,,,,,
,,,,,,,,,,,
,,,,,,,,,,,
,,,,,,,,,,,
,,,,,,,,,,,
,,,,,,,,,,,
,,,,,,,,,,,
,,,,,,,,,,,
,,,,,,,,,,,
,,,,,,,,,,,
,,,,,,,,,,,
,,,,,,,,,,,
,,,,,,,,,,,
,,,,,,,,,,,
,,,,,,,,,,,
,,,,,,,,,,,
,,,,,,,,,,,
,,,,,,,,,,,
,,,,,,,,,,,
,,,,,,,,,,,
,,,,,,,,,,,
,,,,,,,,,,,
,,,,,,,,,,,
,,,,,,,,,,,
,,,,,,,,,,,
,,,,,,,,,,,
,,,,,,,,,,,
,,,,,,,,,,,
,,,,,,,,,,,
,,,,,,,,,,,
,,,,,,,,,,,
,,,,,,,,,,,
,,,,,,,,,,,
,,,,,,,,,,,
,,,,,,,,,,,
,,,,,,,,,,,
,,,,,,,,,,,
,,,,,,,,,,,
,,,,,,,,,,,
,,,,,,,,,,,
,,,,,,,,,,,
,,,,,,,,,,,
,,,,,,,,,,,
,,,,,,,,,,,
,,,,,,,,,,,
,,,,,,,,,,,
,,,,,,,,,,,
,,,,,,,,,,,
,,,,,,,,,,,
,,,,,,,,,,,
,,,,,,,,,,,
,,,,,,,,,,,
,,,,,,,,,,,
,,,,,,,,,,,
,,,,,,,,,,,
,,,,,,,,,,,
,,,,,,,,,,,
,,,,,,,,,,,
,,,,,,,,,,,
,,,,,,,,,,,
,,,,,,,,,,,
,,,,,,,,,,,
,,,,,,,,,,,
,,,,,,,,,,,
,,,,,,,,,,,
,,,,,,,,,,,
,,,,,,,,,,,
,,,,,,,,,,,
,,,,,,,,,,,
,,,,,,,,,,,
,,,,,,,,,,,
,,,,,,,,,,,
,,,,,,,,,,,
,,,,,,,,,,,
,,,,,,,,,,,
,,,,,,,,,,,
,,,,,,,,,,,
,,,,,,,,,,,
,,,,,,,,,,,
,,,,,,,,,,,
,,,,,,,,,,,
,,,,,,,,,,,
,,,,,,,,,,,
,,,,,,,,,,,
,,,,,,,,,,,
,,,,,,,,,,,
,,,,,,,,,,,
,,,,,,,,,,,
,,,,,,,,,,,
,,,,,,,,,,,
,,,,,,,,,,,
,,,,,,,,,,,
,,,,,,,,,,,
,,,,,,,,,,,
,,,,,,,,,,,
,,,,,,,,,,,
,,,,,,,,,,,
,,,,,,,,,,,
,,,,,,,,,,,
,,,,,,,,,,,
,,,,,,,,,,,
,,,,,,,,,,,
,,,,,,,,,,,
,,,,,,,,,,,
,,,,,,,,,,,
,,,,,,,,,,,
,,,,,,,,,,,
,,,,,,,,,,,
,,,,,,,,,,,
,,,,,,,,,,,
,,,,,,,,,,,
,,,,,,,,,,,
,,,,,,,,,,,
,,,,,,,,,,,
,,,,,,,,,,,
,,,,,,,,,,,
,,,,,,,,,,,
,,,,,,,,,,,
,,,,,,,,,,,
,,,,,,,,,,,
,,,,,,,,,,,
,,,,,,,,,,,
,,,,,,,,,,,
,,,,,,,,,,,
,,,,,,,,,,,
,,,,,,,,,,,
,,,,,,,,,,,
,,,,,,,,,,,
,,,,,,,,,,,
,,,,,,,,,,,
,,,,,,,,,,,
,,,,,,,,,,,
,,,,,,,,,,,
,,,,,,,,,,,
,,,,,,,,,,,
,,,,,,,,,,,
,,,,,,,,,,,
,,,,,,,,,,,
,,,,,,,,,,,
,,,,,,,,,,,
,,,,,,,,,,,
,,,,,,,,,,,
,,,,,,,,,,,
,,,,,,,,,,,
,,,,,,,,,,,
,,,,,,,,,,,
,,,,,,,,,,,
,,,,,,,,,,,
,,,,,,,,,,,
,,,,,,,,,,,
,,,,,,,,,,,
,,,,,,,,,,,
,,,,,,,,,,,
,,,,,,,,,,,
,,,,,,,,,,,
,,,,,,,,,,,
,,,,,,,,,,,
,,,,,,,,,,,
,,,,,,,,,,,
,,,,,,,,,,,
,,,,,,,,,,,
,,,,,,,,,,,
,,,,,,,,,,,
,,,,,,,,,,,
,,,,,,,,,,,
,,,,,,,,,,,
,,,,,,,,,,,
,,,,,,,,,,,
,,,,,,,,,,,
,,,,,,,,,,,
,,,,,,,,,,,
,,,,,,,,,,,
,,,,,,,,,,,
,,,,,,,,,,,
,,,,,,,,,,,
,,,,,,,,,,,
,,,,,,,,,,,
,,,,,,,,,,,
,,,,,,,,,,,
,,,,,,,,,,,
,,,,,,,,,,,
,,,,,,,,,,,
,,,,,,,,,,,
,,,,,,,,,,,
,,,,,,,,,,,
,,,,,,,,,,,
,,,,,,,,,,,
,,,,,,,,,,,
,,,,,,,,,,,
,,,,,,,,,,,
,,,,,,,,,,,
,,,,,,,,,,,
,,,,,,,,,,,
,,,,,,,,,,,
,,,,,,,,,,,
,,,,,,,,,,,
,,,,,,,,,,,
,,,,,,,,,,,
,,,,,,,,,,,
,,,,,,,,,,,
,,,,,,,,,,,
,,,,,,,,,,,
,,,,,,,,,,,
,,,,,,,,,,,
,,,,,,,,,,,
,,,,,,,,,,,
,,,,,,,,,,,
,,,,,,,,,,,
,,,,,,,,,,,
,,,,,,,,,,,
,,,,,,,,,,,
,,,,,,,,,,,
,,,,,,,,,,,
,,,,,,,,,,,
,,,,,,,,,,,
,,,,,,,,,,,
,,,,,,,,,,,
,,,,,,,,,,,
,,,,,,,,,,,
,,,,,,,,,,,
,,,,,,,,,,,
,,,,,,,,,,,
,,,,,,,,,,,
,,,,,,,,,,,
,,,,,,,,,,,
,,,,,,,,,,,
,,,,,,,,,,,
,,,,,,,,,,,
,,,,,,,,,,,
,,,,,,,,,,,
,,,,,,,,,,,
,,,,,,,,,,,
,,,,,,,,,,,
,,,,,,,,,,,
,,,,,,,,,,,
,,,,,,,,,,,
,,,,,,,,,,,
,,,,,,,,,,,
,,,,,,,,,,,
,,,,,,,,,,,
,,,,,,,,,,,
,,,,,,,,,,,
,,,,,,,,,,,
,,,,,,,,,,,
,,,,,,,,,,,
,,,,,,,,,,,
,,,,,,,,,,,
,,,,,,,,,,,
,,,,,,,,,,,
,,,,,,,,,,,
,,,,,,,,,,,
,,,,,,,,,,,
,,,,,,,,,,,
,,,,,,,,,,,
,,,,,,,,,,,
,,,,,,,,,,,
,,,,,,,,,,,
,,,,,,,,,,,
,,,,,,,,,,,
,,,,,,,,,,,
,,,,,,,,,,,
,,,,,,,,,,,
,,,,,,,,,,,
,,,,,,,,,,,
,,,,,,,,,,,
,,,,,,,,,,,
,,,,,,,,,,,
,,,,,,,,,,,
,,,,,,,,,,,
,,,,,,,,,,,
,,,,,,,,,,,
,,,,,,,,,,,
,,,,,,,,,,,
,,,,,,,,,,,
,,,,,,,,,,,
,,,,,,,,,,,
,,,,,,,,,,,
,,,,,,,,,,,
,,,,,,,,,,,
,,,,,,,,,,,
,,,,,,,,,,,
,,,,,,,,,,,
,,,,,,,,,,,
,,,,,,,,,,,
,,,,,,,,,,,
,,,,,,,,,,,
,,,,,,,,,,,
,,,,,,,,,,,
,,,,,,,,,,,
,,,,,,,,,,,
,,,,,,,,,,,
,,,,,,,,,,,
,,,,,,,,,,,
,,,,,,,,,,,
,,,,,,,,,,,
,,,,,,,,,,,
,,,,,,,,,,,
,,,,,,,,,,,
,,,,,,,,,,,
,,,,,,,,,,,
,,,,,,,,,,,
,,,,,,,,,,,
,,,,,,,,,,,
,,,,,,,,,,,
,,,,,,,,,,,
,,,,,,,,,,,
,,,,,,,,,,,
,,,,,,,,,,,
,,,,,,,,,,,
,,,,,,,,,,,
,,,,,,,,,,,
,,,,,,,,,,,
,,,,,,,,,,,
,,,,,,,,,,,
,,,,,,,,,,,
,,,,,,,,,,,
,,,,,,,,,,,
,,,,,,,,,,,
,,,,,,,,,,,
,,,,,,,,,,,
,,,,,,,,,,,
,,,,,,,,,,,
,,,,,,,,,,,
,,,,,,,,,,,
,,,,,,,,,,,
,,,,,,,,,,,
,,,,,,,,,,,
,,,,,,,,,,,
,,,,,,,,,,,
,,,,,,,,,,,
,,,,,,,,,,,
,,,,,,,,,,,
,,,,,,,,,,,
,,,,,,,,,,,
,,,,,,,,,,,
,,,,,,,,,,,
,,,,,,,,,,,
,,,,,,,,,,,
,,,,,,,,,,,
,,,,,,,,,,,
,,,,,,,,,,,
,,,,,,,,,,,
,,,,,,,,,,,
,,,,,,,,,,,
,,,,,,,,,,,
,,,,,,,,,,,
,,,,,,,,,,,
,,,,,,,,,,,
,,,,,,,,,,,
,,,,,,,,,,,
,,,,,,,,,,,
,,,,,,,,,,,
,,,,,,,,,,,
,,,,,,,,,,,
,,,,,,,,,,,
,,,,,,,,,,,
,,,,,,,,,,,
,,,,,,,,,,,
,,,,,,,,,,,
,,,,,,,,,,,
,,,,,,,,,,,
,,,,,,,,,,,
,,,,,,,,,,,
,,,,,,,,,,,
,,,,,,,,,,,
,,,,,,,,,,,
,,,,,,,,,,,
,,,,,,,,,,,
,,,,,,,,,,,
,,,,,,,,,,,
,,,,,,,,,,,
,,,,,,,,,,,
,,,,,,,,,,,
,,,,,,,,,,,
,,,,,,,,,,,
,,,,,,,,,,,
,,,,,,,,,,,
,,,,,,,,,,,
,,,,,,,,,,,
,,,,,,,,,,,
,,,,,,,,,,,
,,,,,,,,,,,
,,,,,,,,,,,
,,,,,,,,,,,
,,,,,,,,,,,
,,,,,,,,,,,
,,,,,,,,,,,
,,,,,,,,,,,
,,,,,,,,,,,
,,,,,,,,,,,
,,,,,,,,,,,
,,,,,,,,,,,
,,,,,,,,,,,
,,,,,,,,,,,
,,,,,,,,,,,
,,,,,,,,,,,
,,,,,,,,,,,
,,,,,,,,,,,
,,,,,,,,,,,
,,,,,,,,,,,
,,,,,,,,,,,
,,,,,,,,,,,
,,,,,,,,,,,
,,,,,,,,,,,
,,,,,,,,,,,
,,,,,,,,,,,
,,,,,,,,,,,
,,,,,,,,,,,
,,,,,,,,,,,
,,,,,,,,,,,
,,,,,,,,,,,
,,,,,,,,,,,
,,,,,,,,,,,
,,,,,,,,,,,
,,,,,,,,,,,
,,,,,,,,,,,
,,,,,,,,,,,
,,,,,,,,,,,
,,,,,,,,,,,
,,,,,,,,,,,
,,,,,,,,,,,
,,,,,,,,,,,
,,,,,,,,,,,
,,,,,,,,,,,
,,,,,,,,,,,
,,,,,,,,,,,
,,,,,,,,,,,
,,,,,,,,,,,
,,,,,,,,,,,
,,,,,,,,,,,
,,,,,,,,,,,
,,,,,,,,,,,
,,,,,,,,,,,
,,,,,,,,,,,
,,,,,,,,,,,
,,,,,,,,,,,
,,,,,,,,,,,
,,,,,,,,,,,
,,,,,,,,,,,
,,,,,,,,,,,
,,,,,,,,,,,
,,,,,,,,,,,
,,,,,,,,,,,
,,,,,,,,,,,
,,,,,,,,,,,
,,,,,,,,,,,
,,,,,,,,,,,
,,,,,,,,,,,
,,,,,,,,,,,
,,,,,,,,,,,
,,,,,,,,,,,
,,,,,,,,,,,
,,,,,,,,,,,
,,,,,,,,,,,
,,,,,,,,,,,
,,,,,,,,,,,
,,,,,,,,,,,
,,,,,,,,,,,
,,,,,,,,,,,
,,,,,,,,,,,
,,,,,,,,,,,
,,,,,,,,,,,
,,,,,,,,,,,
,,,,,,,,,,,
,,,,,,,,,,,
,,,,,,,,,,,
,,,,,,,,,,,
,,,,,,,,,,,
,,,,,,,,,,,
,,,,,,,,,,,
,,,,,,,,,,,
,,,,,,,,,,,
,,,,,,,,,,,
,,,,,,,,,,,
,,,,,,,,,,,
,,,,,,,,,,,
,,,,,,,,,,,
,,,,,,,,,,,
,,,,,,,,,,,
,,,,,,,,,,,
,,,,,,,,,,,
,,,,,,,,,,,
,,,,,,,,,,,
,,,,,,,,,,,
,,,,,,,,,,,
,,,,,,,,,,,
,,,,,,,,,,,
,,,,,,,,,,,
,,,,,,,,,,,
,,,,,,,,,,,
,,,,,,,,,,,
,,,,,,,,,,,
,,,,,,,,,,,
,,,,,,,,,,,
,,,,,,,,,,,
,,,,,,,,,,,
,,,,,,,,,,,
,,,,,,,,,,,
,,,,,,,,,,,
,,,,,,,,,,,
,,,,,,,,,,,
,,,,,,,,,,,
,,,,,,,,,,,
,,,,,,,,,,,
,,,,,,,,,,,
,,,,,,,,,,,
,,,,,,,,,,,
,,,,,,,,,,,
,,,,,,,,,,,
,,,,,,,,,,,
,,,,,,,,,,,
,,,,,,,,,,,
,,,,,,,,,,,
,,,,,,,,,,,
,,,,,,,,,,,
,,,,,,,,,,,
,,,,,,,,,,,
,,,,,,,,,,,
,,,,,,,,,,,
,,,,,,,,,,,
,,,,,,,,,,,
,,,,,,,,,,,
,,,,,,,,,,,
,,,,,,,,,,,
,,,,,,,,,,,
,,,,,,,,,,,
,,,,,,,,,,,
,,,,,,,,,,,
,,,,,,,,,,,
,,,,,,,,,,,
,,,,,,,,,,,
,,,,,,,,,,,
,,,,,,,,,,,
,,,,,,,,,,,
,,,,,,,,,,,
,,,,,,,,,,,
,,,,,,,,,,,
,,,,,,,,,,,
,,,,,,,,,,,
,,,,,,,,,,,
,,,,,,,,,,,
,,,,,,,,,,,
,,,,,,,,,,,
,,,,,,,,,,,
,,,,,,,,,,,
,,,,,,,,,,,
,,,,,,,,,,,
,,,,,,,,,,,
,,,,,,,,,,,
,,,,,,,,,,,
,,,,,,,,,,,
,,,,,,,,,,,
,,,,,,,,,,,
,,,,,,,,,,,
,,,,,,,,,,,
,,,,,,,,,,,
,,,,,,,,,,,
,,,,,,,,,,,
,,,,,,,,,,,
,,,,,,,,,,,
,,,,,,,,,,,
,,,,,,,,,,,
,,,,,,,,,,,
,,,,,,,,,,,
,,,,,,,,,,,
,,,,,,,,,,,
,,,,,,,,,,,
,,,,,,,,,,,
,,,,,,,,,,,
,,,,,,,,,,,
,,,,,,,,,,,
,,,,,,,,,,,
,,,,,,,,,,,
,,,,,,,,,,,
,,,,,,,,,,,
,,,,,,,,,,,
,,,,,,,,,,,
,,,,,,,,,,,
,,,,,,,,,,,
,,,,,,,,,,,
,,,,,,,,,,,
,,,,,,,,,,,
,,,,,,,,,,,
,,,,,,,,,,,
,,,,,,,,,,,
,,,,,,,,,,,
,,,,,,,,,,,
,,,,,,,,,,,
,,,,,,,,,,,
,,,,,,,,,,,
,,,,,,,,,,,
,,,,,,,,,,,
,,,,,,,,,,,
,,,,,,,,,,,
,,,,,,,,,,,
,,,,,,,,,,,
,,,,,,,,,,,
,,,,,,,,,,,
,,,,,,,,,,,
,,,,,,,,,,,
,,,,,,,,,,,
,,,,,,,,,,,
,,,,,,,,,,,
,,,,,,,,,,,
,,,,,,,,,,,
,,,,,,,,,,,
,,,,,,,,,,,
,,,,,,,,,,,
,,,,,,,,,,,
,,,,,,,,,,,
,,,,,,,,,,,
,,,,,,,,,,,
,,,,,,,,,,,
,,,,,,,,,,,
,,,,,,,,,,,
,,,,,,,,,,,
,,,,,,,,,,,
,,,,,,,,,,,
,,,,,,,,,,,
,,,,,,,,,,,
,,,,,,,,,,,
,,,,,,,,,,,
,,,,,,,,,,,
,,,,,,,,,,,
,,,,,,,,,,,
,,,,,,,,,,,
,,,,,,,,,,,
,,,,,,,,,,,
,,,,,,,,,,,
,,,,,,,,,,,
,,,,,,,,,,,
,,,,,,,,,,,
,,,,,,,,,,,
,,,,,,,,,,,
,,,,,,,,,,,
,,,,,,,,,,,
,,,,,,,,,,,
,,,,,,,,,,,
,,,,,,,,,,,
,,,,,,,,,,,
,,,,,,,,,,,
,,,,,,,,,,,
,,,,,,,,,,,
,,,,,,,,,,,
,,,,,,,,,,,
,,,,,,,,,,,
,,,,,,,,,,,
,,,,,,,,,,,
,,,,,,,,,,,
,,,,,,,,,,,
,,,,,,,,,,,
,,,,,,,,,,,
,,,,,,,,,,,
,,,,,,,,,,,
,,,,,,,,,,,
,,,,,,,,,,,
,,,,,,,,,,,
,,,,,,,,,,,
,,,,,,,,,,,
,,,,,,,,,,,
,,,,,,,,,,,
,,,,,,,,,,,
,,,,,,,,,,,
,,,,,,,,,,,
,,,,,,,,,,,
,,,,,,,,,,,
,,,,,,,,,,,
,,,,,,,,,,,
,,,,,,,,,,,
,,,,,,,,,,,
,,,,,,,,,,,
,,,,,,,,,,,
,,,,,,,,,,,
,,,,,,,,,,,
,,,,,,,,,,,
,,,,,,,,,,,
,,,,,,,,,,,
,,,,,,,,,,,
,,,,,,,,,,,
,,,,,,,,,,,
,,,,,,,,,,,
,,,,,,,,,,,
,,,,,,,,,,,
,,,,,,,,,,,
,,,,,,,,,,,
,,,,,,,,,,,
,,,,,,,,,,,
,,,,,,,,,,,
,,,,,,,,,,,
,,,,,,,,,,,
,,,,,,,,,,,
,,,,,,,,,,,
,,,,,,,,,,,
,,,,,,,,,,,
,,,,,,,,,,,
,,,,,,,,,,,
,,,,,,,,,,,
,,,,,,,,,,,
,,,,,,,,,,,
,,,,,,,,,,,
,,,,,,,,,,,
,,,,,,,,,,,
,,,,,,,,,,,
,,,,,,,,,,,
,,,,,,,,,,,
,,,,,,,,,,,
,,,,,,,,,,,
,,,,,,,,,,,
,,,,,,,,,,,
,,,,,,,,,,,
,,,,,,,,,,,
,,,,,,,,,,,
,,,,,,,,,,,
,,,,,,,,,,,
,,,,,,,,,,,
,,,,,,,,,,,
,,,,,,,,,,,
,,,,,,,,,,,
,,,,,,,,,,,
,,,,,,,,,,,
,,,,,,,,,,,
,,,,,,,,,,,
,,,,,,,,,,,
,,,,,,,,,,,
,,,,,,,,,,,
,,,,,,,,,,,
,,,,,,,,,,,
,,,,,,,,,,,
,,,,,,,,,,,
,,,,,,,,,,,
,,,,,,,,,,,
,,,,,,,,,,,
,,,,,,,,,,,
,,,,,,,,,,,
,,,,,,,,,,,
,,,,,,,,,,,
,,,,,,,,,,,
,,,,,,,,,,,
,,,,,,,,,,,
,,,,,,,,,,,
,,,,,,,,,,,
,,,,,,,,,,,
,,,,,,,,,,,
,,,,,,,,,,,
,,,,,,,,,,,
,,,,,,,,,,,
,,,,,,,,,,,
,,,,,,,,,,,
,,,,,,,,,,,
,,,,,,,,,,,
,,,,,,,,,,,
,,,,,,,,,,,
,,,,,,,,,,,
,,,,,,,,,,,
,,,,,,,,,,,
,,,,,,,,,,,
,,,,,,,,,,,
,,,,,,,,,,,
,,,,,,,,,,,
,,,,,,,,,,,
,,,,,,,,,,,
,,,,,,,,,,,
,,,,,,,,,,,
,,,,,,,,,,,
,,,,,,,,,,,
16912,-590,104,0.98,-0.02,-1.02,-230,-40,194,-0.03,0.44,1.1
17544,-228,-272,1.02,0.01,-1.04,-267,141,238,-0.6,3.21,1.77
18834,-3518,-482,1.1,-0.19,-1.05,-1648,780,-848,-21.68,12.96,-14.81
20966,2870,2796,1.23,0.2,-0.85,-2530,6560,-4786,-35.15,101.21,-74.93
14040,1818,3982,0.81,0.13,-0.78,69,17176,-5114,4.53,263.28,-79.94
15238,3362,9114,0.88,0.23,-0.47,-932,17123,461,-10.75,262.47,5.18
7704,3820,13942,0.42,0.25,-0.17,958,17267,-2583,18.11,264.67,-41.3
2522,3048,13762,0.1,0.21,-0.19,489,14080,-1772,10.95,216.02,-28.92
-404,4218,15774,-0.07,0.28,-0.06,400,13194,-1858,9.59,202.49,-30.23
-4912,4832,15904,-0.35,0.31,-0.05,-907,9177,-554,-10.37,141.16,-10.32
-3782,3012,7604,-0.28,0.2,-0.56,596,1082,150,12.58,17.57,0.43
-15388,5456,17846,-0.99,0.35,0.06,-1096,2593,2559,-13.25,40.64,37.21
-4544,3084,12948,-0.33,0.21,-0.23,-1413,7118,-965,-18.09,109.73,-16.6
-11660,2478,11828,-0.76,0.17,-0.3,-4142,5419,-5830,-59.76,83.79,-90.87
-14420,-174,10674,-0.93,0.01,-0.37,255,4590,-3347,7.37,71.13,-52.96
-12856,1038,7254,-0.83,0.08,-0.58,553,2697,-2859,11.92,42.23,-45.51
-13638,-4934,8592,-0.88,-0.28,-0.5,3262,3509,1971,53.28,54.63,28.23
-18874,-1420,5202,-1.2,-0.07,-0.71,2411,13796,-542,40.29,211.68,-10.14
-13866,-608,2676,-0.9,-0.02,-0.86,4146,2682,-1406,66.78,42,-23.33
-12920,-236,2128,-0.84,0.01,-0.9,2684,2810,2688,44.46,43.95,39.18
-15288,1052,3406,-0.98,0.08,-0.82,912,2875,2346,17.4,44.95,33.95
-16642,760,-610,-1.07,0.07,-1.06,368,688,1809,9.1,11.56,25.76
-15358,824,-560,-0.99,0.07,-1.06,47,22,292,4.2,1.39,2.6
-14806,734,-132,-0.95,0.06,-1.03,-442,-988,292,-3.27,-14.03,2.6
-14600,1684,882,-0.94,0.12,-0.97,-292,-1705,-487,-0.98,-24.98,-9.3
-14996,1548,-1816,-0.97,0.11,-1.14,-836,3040,1693,-9.28,47.47,23.98
-14686,3508,-1244,-0.95,0.23,-1.1,-1275,3147,1579,-15.98,49.1,22.24
-16352,2414,198,-1.05,0.17,-1.01,-487,-3503,-543,-3.95,-52.43,-10.15
-12200,2612,-1094,-0.79,0.18,-1.09,-1611,-6121,-2081,-21.11,-92.4,-33.63
-20184,-2362,1160,-1.28,-0.12,-0.95,-1645,244,-4379,-21.63,4.78,-68.72
,,,,,,,,,,,
,,,,,,,,,,,
,,,,,,,,,,,
,,,,,,,,,,,
,,,,,,,,,,,
,,,,,,,,,,,
,,,,,,,,,,,
,,,,,,,,,,,
,,,,,,,,,,,
,,,,,,,,,,,
,,,,,,,,,,,
,,,,,,,,,,,
,,,,,,,,,,,
,,,,,,,,,,,
,,,,,,,,,,,
,,,,,,,,,,,
,,,,,,,,,,,
,,,,,,,,,,,
,,,,,,,,,,,
,,,,,,,,,,,
,,,,,,,,,,,
,,,,,,,,,,,
,,,,,,,,,,,
,,,,,,,,,,,
,,,,,,,,,,,
,,,,,,,,,,,
,,,,,,,,,,,
,,,,,,,,,,,
,,,,,,,,,,,
,,,,,,,,,,,
,,,,,,,,,,,
,,,,,,,,,,,
,,,,,,,,,,,
,,,,,,,,,,,
,,,,,,,,,,,
,,,,,,,,,,,
,,,,,,,,,,,
,,,,,,,,,,,
,,,,,,,,,,,
,,,,,,,,,,,
,,,,,,,,,,,
,,,,,,,,,,,
,,,,,,,,,,,
,,,,,,,,,,,
,,,,,,,,,,,
,,,,,,,,,,,
,,,,,,,,,,,
,,,,,,,,,,,
,,,,,,,,,,,
,,,,,,,,,,,
,,,,,,,,,,,
,,,,,,,,,,,
,,,,,,,,,,,
,,,,,,,,,,,
,,,,,,,,,,,
,,,,,,,,,,,
,,,,,,,,,,,
,,,,,,,,,,,
,,,,,,,,,,,
,,,,,,,,,,,
,,,,,,,,,,,
,,,,,,,,,,,
,,,,,,,,,,,
,,,,,,,,,,,
,,,,,,,,,,,
,,,,,,,,,,,
,,,,,,,,,,,
,,,,,,,,,,,
,,,,,,,,,,,
,,,,,,,,,,,
,,,,,,,,,,,
,,,,,,,,,,,
,,,,,,,,,,,
,,,,,,,,,,,
,,,,,,,,,,,
,,,,,,,,,,,
,,,,,,,,,,,
,,,,,,,,,,,
,,,,,,,,,,,
,,,,,,,,,,,
,,,,,,,,,,,
,,,,,,,,,,,
,,,,,,,,,,,
,,,,,,,,,,,
,,,,,,,,,,,
,,,,,,,,,,,
,,,,,,,,,,,
,,,,,,,,,,,
,,,,,,,,,,,
,,,,,,,,,,,
,,,,,,,,,,,
,,,,,,,,,,,
,,,,,,,,,,,
,,,,,,,,,,,
,,,,,,,,,,,
,,,,,,,,,,,
,,,,,,,,,,,
,,,,,,,,,,,
,,,,,,,,,,,
,,,,,,,,,,,
,,,,,,,,,,,
,,,,,,,,,,,
,,,,,,,,,,,
,,,,,,,,,,,
,,,,,,,,,,,
,,,,,,,,,,,
,,,,,,,,,,,
,,,,,,,,,,,
,,,,,,,,,,,
,,,,,,,,,,,
,,,,,,,,,,,
,,,,,,,,,,,
,,,,,,,,,,,
,,,,,,,,,,,
,,,,,,,,,,,
,,,,,,,,,,,
,,,,,,,,,,,
,,,,,,,,,,,
,,,,,,,,,,,
,,,,,,,,,,,
,,,,,,,,,,,
,,,,,,,,,,,
,,,,,,,,,,,
,,,,,,,,,,,
,,,,,,,,,,,
,,,,,,,,,,,
,,,,,,,,,,,
,,,,,,,,,,,
,,,,,,,,,,,
,,,,,,,,,,,
,,,,,,,,,,,
,,,,,,,,,,,
,,,,,,,,,,,
,,,,,,,,,,,
,,,,,,,,,,,
,,,,,,,,,,,
,,,,,,,,,,,
,,,,,,,,,,,
,,,,,,,,,,,
,,,,,,,,,,,
,,,,,,,,,,,
,,,,,,,,,,,
,,,,,,,,,,,
,,,,,,,,,,,
,,,,,,,,,,,
,,,,,,,,,,,
,,,,,,,,,,,
,,,,,,,,,,,
,,,,,,,,,,,
,,,,,,,,,,,
,,,,,,,,,,,
,,,,,,,,,,,
,,,,,,,,,,,
,,,,,,,,,,,
,,,,,,,,,,,
,,,,,,,,,,,
,,,,,,,,,,,
,,,,,,,,,,,
,,,,,,,,,,,
,,,,,,,,,,,
,,,,,,,,,,,
,,,,,,,,,,,
,,,,,,,,,,,
,,,,,,,,,,,
,,,,,,,,,,,
,,,,,,,,,,,
,,,,,,,,,,,
,,,,,,,,,,,
,,,,,,,,,,,
,,,,,,,,,,,
,,,,,,,,,,,
,,,,,,,,,,,
,,,,,,,,,,,
,,,,,,,,,,,
,,,,,,,,,,,
,,,,,,,,,,,
,,,,,,,,,,,
,,,,,,,,,,,
,,,,,,,,,,,
,,,,,,,,,,,
,,,,,,,,,,,
,,,,,,,,,,,
,,,,,,,,,,,
,,,,,,,,,,,
,,,,,,,,,,,
,,,,,,,,,,,
,,,,,,,,,,,
,,,,,,,,,,,
,,,,,,,,,,,
,,,,,,,,,,,
,,,,,,,,,,,
,,,,,,,,,,,
,,,,,,,,,,,
,,,,,,,,,,,
,,,,,,,,,,,
,,,,,,,,,,,
,,,,,,,,,,,
,,,,,,,,,,,
,,,,,,,,,,,
,,,,,,,,,,,
,,,,,,,,,,,
,,,,,,,,,,,
,,,,,,,,,,,
,,,,,,,,,,,
,,,,,,,,,,,
,,,,,,,,,,,
,,,,,,,,,,,
,,,,,,,,,,,
,,,,,,,,,,,
,,,,,,,,,,,
,,,,,,,,,,,
,,,,,,,,,,,
,,,,,,,,,,,
,,,,,,,,,,,
,,,,,,,,,,,
,,,,,,,,,,,
,,,,,,,,,,,
,,,,,,,,,,,
,,,,,,,,,,,
,,,,,,,,,,,
,,,,,,,,,,,
,,,,,,,,,,,
,,,,,,,,,,,
,,,,,,,,,,,
,,,,,,,,,,,
,,,,,,,,,,,
,,,,,,,,,,,
,,,,,,,,,,,
,,,,,,,,,,,
,,,,,,,,,,,
,,,,,,,,,,,
,,,,,,,,,,,
,,,,,,,,,,,
,,,,,,,,,,,
,,,,,,,,,,,
,,,,,,,,,,,
,,,,,,,,,,,
,,,,,,,,,,,
,,,,,,,,,,,
,,,,,,,,,,,
,,,,,,,,,,,
,,,,,,,,,,,
,,,,,,,,,,,
,,,,,,,,,,,
,,,,,,,,,,,
,,,,,,,,,,,
,,,,,,,,,,,
,,,,,,,,,,,
,,,,,,,,,,,
,,,,,,,,,,,
,,,,,,,,,,,
,,,,,,,,,,,
,,,,,,,,,,,
,,,,,,,,,,,
,,,,,,,,,,,
,,,,,,,,,,,
,,,,,,,,,,,
,,,,,,,,,,,
,,,,,,,,,,,
,,,,,,,,,,,
,,,,,,,,,,,
,,,,,,,,,,,
,,,,,,,,,,,
,,,,,,,,,,,
,,,,,,,,,,,
,,,,,,,,,,,
,,,,,,,,,,,
,,,,,,,,,,,
,,,,,,,,,,,
,,,,,,,,,,,
,,,,,,,,,,,
,,,,,,,,,,,
,,,,,,,,,,,
,,,,,,,,,,,
,,,,,,,,,,,
,,,,,,,,,,,
,,,,,,,,,,,
,,,,,,,,,,,
,,,,,,,,,,,
,,,,,,,,,,,
,,,,,,,,,,,
,,,,,,,,,,,
,,,,,,,,,,,
,,,,,,,,,,,
,,,,,,,,,,,
,,,,,,,,,,,
,,,,,,,,,,,
,,,,,,,,,,,
,,,,,,,,,,,
,,,,,,,,,,,
,,,,,,,,,,,
,,,,,,,,,,,
,,,,,,,,,,,
,,,,,,,,,,,
,,,,,,,,,,,
,,,,,,,,,,,
,,,,,,,,,,,
,,,,,,,,,,,
,,,,,,,,,,,
,,,,,,,,,,,
,,,,,,,,,,,
,,,,,,,,,,,
,,,,,,,,,,,
,,,,,,,,,,,
,,,,,,,,,,,
,,,,,,,,,,,
,,,,,,,,,,,
,,,,,,,,,,,
,,,,,,,,,,,
,,,,,,,,,,,
,,,,,,,,,,,
,,,,,,,,,,,
,,,,,,,,,,,
,,,,,,,,,,,
,,,,,,,,,,,
,,,,,,,,,,,
,,,,,,,,,,,
,,,,,,,,,,,
,,,,,,,,,,,
,,,,,,,,,,,
,,,,,,,,,,,
,,,,,,,,,,,
,,,,,,,,,,,
,,,,,,,,,,,
,,,,,,,,,,,
,,,,,,,,,,,
,,,,,,,,,,,
,,,,,,,,,,,
,,,,,,,,,,,
,,,,,,,,,,,
,,,,,,,,,,,
,,,,,,,,,,,
,,,,,,,,,,,
,,,,,,,,,,,
,,,,,,,,,,,
,,,,,,,,,,,
,,,,,,,,,,,
,,,,,,,,,,,
,,,,,,,,,,,
,,,,,,,,,,,
,,,,,,,,,,,
,,,,,,,,,,,
,,,,,,,,,,,
,,,,,,,,,,,
,,,,,,,,,,,
,,,,,,,,,,,
,,,,,,,,,,,
,,,,,,,,,,,
,,,,,,,,,,,
,,,,,,,,,,,
,,,,,,,,,,,
,,,,,,,,,,,
,,,,,,,,,,,
,,,,,,,,,,,
,,,,,,,,,,,
,,,,,,,,,,,
,,,,,,,,,,,
,,,,,,,,,,,
,,,,,,,,,,,
,,,,,,,,,,,
,,,,,,,,,,,
,,,,,,,,,,,
,,,,,,,,,,,
,,,,,,,,,,,
,,,,,,,,,,,
,,,,,,,,,,,
,,,,,,,,,,,
,,,,,,,,,,,
,,,,,,,,,,,
,,,,,,,,,,,
,,,,,,,,,,,
,,,,,,,,,,,
,,,,,,,,,,,
,,,,,,,,,,,
,,,,,,,,,,,
,,,,,,,,,,,
,,,,,,,,,,,
,,,,,,,,,,,
,,,,,,,,,,,
,,,,,,,,,,,
,,,,,,,,,,,
,,,,,,,,,,,
,,,,,,,,,,,
,,,,,,,,,,,
,,,,,,,,,,,
,,,,,,,,,,,
,,,,,,,,,,,
,,,,,,,,,,,
,,,,,,,,,,,
,,,,,,,,,,,
,,,,,,,,,,,
,,,,,,,,,,,
,,,,,,,,,,,
,,,,,,,,,,,
,,,,,,,,,,,
,,,,,,,,,,,
,,,,,,,,,,,
,,,,,,,,,,,
,,,,,,,,,,,
,,,,,,,,,,,
,,,,,,,,,,,
,,,,,,,,,,,
,,,,,,,,,,,
,,,,,,,,,,,
,,,,,,,,,,,
,,,,,,,,,,,
,,,,,,,,,,,
,,,,,,,,,,,
,,,,,,,,,,,
,,,,,,,,,,,
,,,,,,,,,,,
,,,,,,,,,,,
,,,,,,,,,,,
,,,,,,,,,,,
,,,,,,,,,,,
,,,,,,,,,,,
,,,,,,,,,,,
,,,,,,,,,,,
,,,,,,,,,,,
,,,,,,,,,,,
,,,,,,,,,,,
,,,,,,,,,,,
,,,,,,,,,,,
,,,,,,,,,,,
,,,,,,,,,,,
,,,,,,,,,,,
,,,,,,,,,,,
,,,,,,,,,,,
,,,,,,,,,,,
,,,,,,,,,,,
,,,,,,,,,,,
,,,,,,,,,,,
,,,,,,,,,,,
,,,,,,,,,,,
,,,,,,,,,,,
,,,,,,,,,,,
,,,,,,,,,,,
,,,,,,,,,,,
,,,,,,,,,,,
,,,,,,,,,,,
,,,,,,,,,,,
,,,,,,,,,,,
,,,,,,,,,,,
,,,,,,,,,,,
,,,,,,,,,,,
,,,,,,,,,,,
,,,,,,,,,,,
,,,,,,,,,,,
,,,,,,,,,,,
,,,,,,,,,,,
,,,,,,,,,,,
,,,,,,,,,,,
,,,,,,,,,,,
,,,,,,,,,,,
,,,,,,,,,,,
,,,,,,,,,,,
,,,,,,,,,,,
,,,,,,,,,,,
,,,,,,,,,,,
,,,,,,,,,,,
,,,,,,,,,,,
,,,,,,,,,,,
,,,,,,,,,,,
,,,,,,,,,,,
,,,,,,,,,,,
,,,,,,,,,,,
,,,,,,,,,,,
,,,,,,,,,,,
,,,,,,,,,,,
,,,,,,,,,,,
,,,,,,,,,,,
,,,,,,,,,,,
,,,,,,,,,,,
,,,,,,,,,,,
,,,,,,,,,,,
,,,,,,,,,,,
,,,,,,,,,,,
,,,,,,,,,,,
,,,,,,,,,,,
,,,,,,,,,,,
,,,,,,,,,,,
,,,,,,,,,,,
,,,,,,,,,,,
,,,,,,,,,,,
,,,,,,,,,,,
,,,,,,,,,,,
,,,,,,,,,,,
,,,,,,,,,,,
,,,,,,,,,,,
,,,,,,,,,,,
,,,,,,,,,,,
,,,,,,,,,,,
,,,,,,,,,,,
,,,,,,,,,,,
,,,,,,,,,,,
,,,,,,,,,,,
,,,,,,,,,,,
,,,,,,,,,,,
,,,,,,,,,,,
,,,,,,,,,,,
,,,,,,,,,,,
,,,,,,,,,,,
,,,,,,,,,,,
,,,,,,,,,,,
,,,,,,,,,,,
,,,,,,,,,,,
,,,,,,,,,,,
,,,,,,,,,,,
,,,,,,,,,,,
,,,,,,,,,,,
,,,,,,,,,,,
,,,,,,,,,,,
,,,,,,,,,,,
,,,,,,,,,,,
,,,,,,,,,,,
,,,,,,,,,,,
,,,,,,,,,,,
,,,,,,,,,,,
,,,,,,,,,,,
,,,,,,,,,,,
,,,,,,,,,,,
,,,,,,,,,,,
,,,,,,,,,,,
,,,,,,,,,,,
,,,,,,,,,,,
,,,,,,,,,,,
,,,,,,,,,,,
,,,,,,,,,,,
,,,,,,,,,,,
,,,,,,,,,,,
,,,,,,,,,,,
,,,,,,,,,,,
,,,,,,,,,,,
,,,,,,,,,,,
,,,,,,,,,,,
,,,,,,,,,,,
,,,,,,,,,,,
,,,,,,,,,,,
,,,,,,,,,,,
,,,,,,,,,,,
,,,,,,,,,,,
,,,,,,,,,,,
,,,,,,,,,,,
,,,,,,,,,,,
,,,,,,,,,,,
,,,,,,,,,,,
,,,,,,,,,,,
,,,,,,,,,,,
,,,,,,,,,,,
,,,,,,,,,,,
,,,,,,,,,,,
,,,,,,,,,,,
,,,,,,,,,,,
,,,,,,,,,,,
,,,,,,,,,,,
,,,,,,,,,,,
,,,,,,,,,,,
,,,,,,,,,,,
,,,,,,,,,,,
,,,,,,,,,,,
,,,,,,,,,,,
,,,,,,,,,,,
,,,,,,,,,,,
,,,,,,,,,,,
,,,,,,,,,,,
,,,,,,,,,,,
,,,,,,,,,,,
,,,,,,,,,,,
,,,,,,,,,,,
,,,,,,,,,,,
,,,,,,,,,,,
,,,,,,,,,,,
,,,,,,,,,,,
,,,,,,,,,,,
,,,,,,,,,,,
,,,,,,,,,,,
,,,,,,,,,,,
,,,,,,,,,,,
,,,,,,,,,,,
,,,,,,,,,,,
,,,,,,,,,,,
,,,,,,,,,,,
,,,,,,,,,,,
,,,,,,,,,,,
,,,,,,,,,,,
,,,,,,,,,,,
,,,,,,,,,,,
,,,,,,,,,,,
,,,,,,,,,,,
,,,,,,,,,,,
,,,,,,,,,,,
,,,,,,,,,,,
,,,,,,,,,,,
,,,,,,,,,,,
,,,,,,,,,,,
,,,,,,,,,,,
,,,,,,,,,,,
,,,,,,,,,,,
,,,,,,,,,,,
,,,,,,,,,,,
,,,,,,,,,,,
,,,,,,,,,,,
,,,,,,,,,,,
,,,,,,,,,,,
,,,,,,,,,,,
,,,,,,,,,,,
,,,,,,,,,,,
,,,,,,,,,,,
,,,,,,,,,,,
,,,,,,,,,,,
,,,,,,,,,,,
,,,,,,,,,,,
,,,,,,,,,,,
,,,,,,,,,,,
,,,,,,,,,,,
,,,,,,,,,,,
,,,,,,,,,,,
,,,,,,,,,,,
,,,,,,,,,,,
,,,,,,,,,,,
,,,,,,,,,,,
,,,,,,,,,,,
,,,,,,,,,,,
,,,,,,,,,,,
,,,,,,,,,,,
,,,,,,,,,,,
,,,,,,,,,,,
,,,,,,,,,,,
,,,,,,,,,,,
,,,,,,,,,,,
,,,,,,,,,,,
,,,,,,,,,,,
,,,,,,,,,,,
,,,,,,,,,,,
,,,,,,,,,,,
,,,,,,,,,,,
,,,,,,,,,,,
,,,,,,,,,,,
,,,,,,,,,,,
,,,,,,,,,,,
,,,,,,,,,,,
,,,,,,,,,,,
,,,,,,,,,,,
,,,,,,,,,,,
,,,,,,,,,,,
,,,,,,,,,,,
,,,,,,,,,,,
,,,,,,,,,,,
,,,,,,,,,,,
,,,,,,,,,,,
,,,,,,,,,,,
,,,,,,,,,,,
,,,,,,,,,,,
,,,,,,,,,,,
,,,,,,,,,,,
,,,,,,,,,,,
,,,,,,,,,,,
,,,,,,,,,,,
,,,,,,,,,,,
,,,,,,,,,,,
,,,,,,,,,,,
,,,,,,,,,,,
,,,,,,,,,,,
,,,,,,,,,,,
,,,,,,,,,,,
,,,,,,,,,,,
,,,,,,,,,,,
,,,,,,,,,,,
,,,,,,,,,,,
,,,,,,,,,,,
,,,,,,,,,,,
,,,,,,,,,,,
,,,,,,,,,,,
,,,,,,,,,,,
,,,,,,,,,,,
,,,,,,,,,,,
,,,,,,,,,,,
,,,,,,,,,,,
,,,,,,,,,,,
,,,,,,,,,,,
,,,,,,,,,,,
,,,,,,,,,,,
,,,,,,,,,,,
,,,,,,,,,,,
,,,,,,,,,,,
,,,,,,,,,,,
,,,,,,,,,,,
,,,,,,,,,,,
,,,,,,,,,,,
,,,,,,,,,,,
,,,,,,,,,,,
,,,,,,,,,,,
,,,,,,,,,,,
,,,,,,,,,,,
,,,,,,,,,,,
,,,,,,,,,,,
,,,,,,,,,,,
,,,,,,,,,,,
,,,,,,,,,,,
,,,,,,,,,,,
,,,,,,,,,,,
,,,,,,,,,,,
,,,,,,,,,,,
,,,,,,,,,,,
,,,,,,,,,,,
,,,,,,,,,,,
,,,,,,,,,,,
,,,,,,,,,,,
,,,,,,,,,,,
,,,,,,,,,,,
,,,,,,,,,,,
,,,,,,,,,,,
,,,,,,,,,,,
,,,,,,,,,,,
,,,,,,,,,,,
,,,,,,,,,,,
,,,,,,,,,,,
,,,,,,,,,,,
,,,,,,,,,,,
,,,,,,,,,,,
,,,,,,,,,,,
,,,,,,,,,,,
,,,,,,,,,,,
,,,,,,,,,,,
,,,,,,,,,,,
,,,,,,,,,,,
,,,,,,,,,,,
,,,,,,,,,,,
,,,,,,,,,,,
,,,,,,,,,,,
,,,,,,,,,,,
,,,,,,,,,,,
,,,,,,,,,,,
,,,,,,,,,,,
,,,,,,,,,,,
,,,,,,,,,,,
,,,,,,,,,,,
,,,,,,,,,,,
,,,,,,,,,,,
,,,,,,,,,,,
,,,,,,,,,,,
,,,,,,,,,,,
,,,,,,,,,,,
,,,,,,,,,,,
,,,,,,,,,,,
,,,,,,,,,,,
,,,,,,,,,,,
,,,,,,,,,,,
,,,,,,,,,,,
,,,,,,,,,,,
,,,,,,,,,,,
,,,,,,,,,,,
,,,,,,,,,,,
,,,,,,,,,,,
,,,,,,,,,,,
,,,,,,,,,,,
,,,,,,,,,,,
,,,,,,,,,,,
,,,,,,,,,,,
,,,,,,,,,,,
,,,,,,,,,,,
,,,,,,,,,,,
,,,,,,,,,,,
,,,,,,,,,,,
,,,,,,,,,,,
,,,,,,,,,,,
,,,,,,,,,,,
,,,,,,,,,,,
,,,,,,,,,,,
,,,,,,,,,,,
,,,,,,,,,,,
,,,,,,,,,,,
,,,,,,,,,,,
,,,,,,,,,,,
,,,,,,,,,,,
,,,,,,,,,,,
,,,,,,,,,,,
,,,,,,,,,,,
,,,,,,,,,,,
,,,,,,,,,,,
,,,,,,,,,,,
,,,,,,,,,,,
,,,,,,,,,,,
,,,,,,,,,,,
,,,,,,,,,,,
,,,,,,,,,,,
,,,,,,,,,,,
,,,,,,,,,,,
,,,,,,,,,,,
,,,,,,,,,,,
,,,,,,,,,,,
,,,,,,,,,,,
,,,,,,,,,,,
,,,,,,,,,,,
,,,,,,,,,,,
,,,,,,,,,,,
,,,,,,,,,,,
,,,,,,,,,,,
,,,,,,,,,,,
,,,,,,,,,,,
,,,,,,,,,,,
,,,,,,,,,,,
,,,,,,,,,,,
,,,,,,,,,,,
,,,,,,,,,,,
,,,,,,,,,,,
,,,,,,,,,,,
,,,,,,,,,,,
,,,,,,,,,,,
,,,,,,,,,,,
,,,,,,,,,,,
,,,,,,,,,,,
,,,,,,,,,,,
,,,,,,,,,,,
,,,,,,,,,,,
,,,,,,,,,,,
,,,,,,,,,,,
,,,,,,,,,,,
,,,,,,,,,,,
,,,,,,,,,,,
,,,,,,,,,,,
,,,,,,,,,,,
,,,,,,,,,,,
,,,,,,,,,,,
,,,,,,,,,,,
,,,,,,,,,,,
,,,,,,,,,,,
,,,,,,,,,,,
,,,,,,,,,,,
,,,,,,,,,,,
,,,,,,,,,,,
,,,,,,,,,,,
,,,,,,,,,,,
,,,,,,,,,,,
,,,,,,,,,,,
,,,,,,,,,,,
,,,,,,,,,,,
,,,,,,,,,,,
,,,,,,,,,,,
,,,,,,,,,,,
,,,,,,,,,,,
,,,,,,,,,,,
,,,,,,,,,,,
,,,,,,,,,,,
,,,,,,,,,,,
,,,,,,,,,,,
,,,,,,,,,,,
,,,,,,,,,,,
,,,,,,,,,,,
,,,,,,,,,,,
,,,,,,,,,,,
,,,,,,,,,,,
,,,,,,,,,,,
,,,,,,,,,,,
,,,,,,,,,,,
,,,,,,,,,,,
,,,,,,,,,,,
,,,,,,,,,,,
,,,,,,,,,,,
,,,,,,,,,,,
,,,,,,,,,,,
,,,,,,,,,,,
,,,,,,,,,,,
,,,,,,,,,,,
,,,,,,,,,,,
,,,,,,,,,,,
,,,,,,,,,,,
,,,,,,,,,,,
,,,,,,,,,,,
,,,,,,,,,,,
,,,,,,,,,,,
,,,,,,,,,,,
,,,,,,,,,,,
,,,,,,,,,,,
,,,,,,,,,,,
,,,,,,,,,,,
,,,,,,,,,,,
,,,,,,,,,,,
,,,,,,,,,,,
,,,,,,,,,,,
,,,,,,,,,,,
,,,,,,,,,,,
,,,,,,,,,,,
,,,,,,,,,,,
,,,,,,,,,,,
,,,,,,,,,,,
,,,,,,,,,,,
,,,,,,,,,,,
,,,,,,,,,,,
,,,,,,,,,,,
,,,,,,,,,,,
,,,,,,,,,,,
,,,,,,,,,,,
,,,,,,,,,,,
,,,,,,,,,,,
,,,,,,,,,,,
,,,,,,,,,,,
,,,,,,,,,,,
,,,,,,,,,,,
,,,,,,,,,,,
,,,,,,,,,,,
,,,,,,,,,,,
,,,,,,,,,,,
,,,,,,,,,,,
,,,,,,,,,,,
,,,,,,,,,,,
,,,,,,,,,,,
,,,,,,,,,,,
,,,,,,,,,,,
,,,,,,,,,,,
,,,,,,,,,,,
,,,,,,,,,,,
,,,,,,,,,,,
,,,,,,,,,,,
,,,,,,,,,,,
,,,,,,,,,,,
,,,,,,,,,,,
,,,,,,,,,,,
,,,,,,,,,,,
,,,,,,,,,,,
,,,,,,,,,,,
,,,,,,,,,,,
,,,,,,,,,,,
,,,,,,,,,,,
,,,,,,,,,,,
,,,,,,,,,,,
,,,,,,,,,,,
,,,,,,,,,,,
,,,,,,,,,,,
,,,,,,,,,,,
,,,,,,,,,,,
,,,,,,,,,,,
,,,,,,,,,,,
,,,,,,,,,,,
,,,,,,,,,,,
,,,,,,,,,,,
,,,,,,,,,,,
,,,,,,,,,,,
,,,,,,,,,,,
,,,,,,,,,,,
,,,,,,,,,,,
,,,,,,,,,,,
,,,,,,,,,,,
,,,,,,,,,,,
,,,,,,,,,,,
,,,,,,,,,,,
,,,,,,,,,,,
,,,,,,,,,,,
,,,,,,,,,,,
,,,,,,,,,,,
,,,,,,,,,,,
,,,,,,,,,,,
,,,,,,,,,,,
,,,,,,,,,,,
,,,,,,,,,,,
,,,,,,,,,,,
,,,,,,,,,,,
,,,,,,,,,,,
,,,,,,,,,,,
,,,,,,,,,,,
,,,,,,,,,,,
,,,,,,,,,,,
,,,,,,,,,,,
,,,,,,,,,,,
,,,,,,,,,,,
,,,,,,,,,,,
,,,,,,,,,,,
,,,,,,,,,,,
,,,,,,,,,,,
,,,,,,,,,,,
,,,,,,,,,,,
,,,,,,,,,,,
,,,,,,,,,,,
,,,,,,,,,,,
,,,,,,,,,,,
,,,,,,,,,,,
,,,,,,,,,,,
,,,,,,,,,,,
,,,,,,,,,,,
,,,,,,,,,,,
,,,,,,,,,,,
,,,,,,,,,,,
,,,,,,,,,,,
,,,,,,,,,,,
,,,,,,,,,,,
,,,,,,,,,,,
,,,,,,,,,,,
,,,,,,,,,,,
,,,,,,,,,,,
,,,,,,,,,,,
,,,,,,,,,,,
,,,,,,,,,,,
,,,,,,,,,,,
,,,,,,,,,,,
,,,,,,,,,,,
,,,,,,,,,,,
,,,,,,,,,,,
,,,,,,,,,,,
,,,,,,,,,,,
,,,,,,,,,,,
,,,,,,,,,,,
,,,,,,,,,,,
,,,,,,,,,,,
,,,,,,,,,,,
,,,,,,,,,,,
,,,,,,,,,,,
,,,,,,,,,,,
,,,,,,,,,,,
,,,,,,,,,,,
,,,,,,,,,,,
,,,,,,,,,,,
,,,,,,,,,,,
,,,,,,,,,,,
,,,,,,,,,,,
,,,,,,,,,,,
,,,,,,,,,,,
,,,,,,,,,,,
,,,,,,,,,,,
,,,,,,,,,,,
,,,,,,,,,,,
,,,,,,,,,,,
,,,,,,,,,,,
,,,,,,,,,,,
,,,,,,,,,,,
,,,,,,,,,,,
,,,,,,,,,,,
,,,,,,,,,,,
,,,,,,,,,,,
,,,,,,,,,,,
,,,,,,,,,,,
,,,,,,,,,,,
,,,,,,,,,,,
,,,,,,,,,,,
,,,,,,,,,,,
,,,,,,,,,,,
,,,,,,,,,,,
,,,,,,,,,,,
,,,,,,,,,,,
,,,,,,,,,,,
,,,,,,,,,,,
,,,,,,,,,,,
,,,,,,,,,,,
,,,,,,,,,,,
,,,,,,,,,,,
,,,,,,,,,,,
,,,,,,,,,,,
,,,,,,,,,,,
,,,,,,,,,,,
,,,,,,,,,,,
,,,,,,,,,,,
,,,,,,,,,,,
,,,,,,,,,,,
,,,,,,,,,,,
,,,,,,,,,,,
,,,,,,,,,,,
,,,,,,,,,,,
,,,,,,,,,,,
,,,,,,,,,,,
,,,,,,,,,,,
,,,,,,,,,,,
,,,,,,,,,,,
,,,,,,,,,,,
,,,,,,,,,,,
,,,,,,,,,,,
,,,,,,,,,,,
,,,,,,,,,,,
,,,,,,,,,,,
,,,,,,,,,,,
,,,,,,,,,,,
,,,,,,,,,,,
,,,,,,,,,,,
,,,,,,,,,,,
,,,,,,,,,,,
,,,,,,,,,,,
,,,,,,,,,,,
,,,,,,,,,,,
,,,,,,,,,,,
,,,,,,,,,,,
,,,,,,,,,,,
,,,,,,,,,,,
,,,,,,,,,,,
,,,,,,,,,,,
,,,,,,,,,,,
,,,,,,,,,,,
,,,,,,,,,,,
,,,,,,,,,,,
,,,,,,,,,,,
,,,,,,,,,,,
,,,,,,,,,,,
,,,,,,,,,,,
,,,,,,,,,,,
,,,,,,,,,,,
,,,,,,,,,,,
,,,,,,,,,,,
,,,,,,,,,,,
,,,,,,,,,,,
,,,,,,,,,,,
,,,,,,,,,,,
,,,,,,,,,,,
,,,,,,,,,,,
,,,,,,,,,,,
,,,,,,,,,,,
,,,,,,,,,,,
,,,,,,,,,,,
,,,,,,,,,,,
,,,,,,,,,,,
,,,,,,,,,,,
,,,,,,,,,,,
,,,,,,,,,,,
,,,,,,,,,,,
,,,,,,,,,,,
,,,,,,,,,,,
,,,,,,,,,,,
,,,,,,,,,,,
,,,,,,,,,,,
,,,,,,,,,,,
,,,,,,,,,,,
,,,,,,,,,,,
,,,,,,,,,,,
,,,,,,,,,,,
,,,,,,,,,,,
,,,,,,,,,,,
,,,,,,,,,,,
,,,,,,,,,,,
,,,,,,,,,,,
,,,,,,,,,,,
,,,,,,,,,,,
,,,,,,,,,,,
,,,,,,,,,,,
,,,,,,,,,,,
,,,,,,,,,,,
,,,,,,,,,,,
,,,,,,,,,,,
,,,,,,,,,,,
,,,,,,,,,,,
,,,,,,,,,,,
,,,,,,,,,,,
,,,,,,,,,,,
,,,,,,,,,,,
,,,,,,,,,,,
,,,,,,,,,,,
,,,,,,,,,,,
,,,,,,,,,,,
,,,,,,,,,,,
,,,,,,,,,,,
,,,,,,,,,,,
,,,,,,,,,,,
,,,,,,,,,,,
,,,,,,,,,,,
,,,,,,,,,,,
,,,,,,,,,,,
,,,,,,,,,,,
,,,,,,,,,,,
,,,,,,,,,,,
,,,,,,,,,,,
,,,,,,,,,,,
,,,,,,,,,,,
,,,,,,,,,,,
,,,,,,,,,,,
,,,,,,,,,,,
,,,,,,,,,,,
,,,,,,,,,,,
,,,,,,,,,,,
,,,,,,,,,,,
,,,,,,,,,,,
,,,,,,,,,,,
,,,,,,,,,,,
,,,,,,,,,,,
,,,,,,,,,,,
,,,,,,,,,,,
,,,,,,,,,,,
,,,,,,,,,,,
,,,,,,,,,,,
,,,,,,,,,,,
,,,,,,,,,,,
,,,,,,,,,,,
,,,,,,,,,,,
,,,,,,,,,,,
,,,,,,,,,,,
,,,,,,,,,,,
,,,,,,,,,,,
,,,,,,,,,,,
,,,,,,,,,,,
,,,,,,,,,,,
,,,,,,,,,,,
,,,,,,,,,,,
,,,,,,,,,,,
,,,,,,,,,,,
,,,,,,,,,,,
,,,,,,,,,,,
,,,,,,,,,,,
,,,,,,,,,,,
,,,,,,,,,,,
,,,,,,,,,,,
,,,,,,,,,,,
,,,,,,,,,,,
,,,,,,,,,,,
,,,,,,,,,,,
,,,,,,,,,,,
,,,,,,,,,,,
,,,,,,,,,,,
,,,,,,,,,,,
,,,,,,,,,,,
,,,,,,,,,,,
,,,,,,,,,,,
,,,,,,,,,,,
,,,,,,,,,,,
,,,,,,,,,,,
,,,,,,,,,,,
,,,,,,,,,,,
,,,,,,,,,,,
,,,,,,,,,,,
,,,,,,,,,,,
,,,,,,,,,,,
,,,,,,,,,,,
,,,,,,,,,,,
,,,,,,,,,,,
,,,,,,,,,,,
,,,,,,,,,,,
,,,,,,,,,,,
,,,,,,,,,,,
,,,,,,,,,,,
,,,,,,,,,,,
,,,,,,,,,,,
,,,,,,,,,,,
,,,,,,,,,,,
,,,,,,,,,,,
,,,,,,,,,,,
,,,,,,,,,,,
,,,,,,,,,,,
,,,,,,,,,,,
,,,,,,,,,,,
,,,,,,,,,,,
,,,,,,,,,,,
,,,,,,,,,,,
,,,,,,,,,,,
,,,,,,,,,,,
,,,,,,,,,,,
,,,,,,,,,,,
,,,,,,,,,,,
,,,,,,,,,,,
,,,,,,,,,,,
,,,,,,,,,,,
,,,,,,,,,,,
,,,,,,,,,,,
,,,,,,,,,,,
,,,,,,,,,,,
,,,,,,,,,,,
,,,,,,,,,,,
,,,,,,,,,,,
,,,,,,,,,,,
,,,,,,,,,,,
,,,,,,,,,,,
,,,,,,,,,,,
,,,,,,,,,,,
,,,,,,,,,,,
,,,,,,,,,,,
,,,,,,,,,,,
,,,,,,,,,,,
,,,,,,,,,,,
,,,,,,,,,,,
,,,,,,,,,,,
,,,,,,,,,,,
,,,,,,,,,,,
,,,,,,,,,,,
,,,,,,,,,,,
,,,,,,,,,,,
,,,,,,,,,,,
,,,,,,,,,,,
,,,,,,,,,,,
,,,,,,,,,,,
,,,,,,,,,,,
,,,,,,,,,,,
,,,,,,,,,,,
,,,,,,,,,,,
,,,,,,,,,,,
,,,,,,,,,,,
,,,,,,,,,,,
,,,,,,,,,,,
,,,,,,,,,,,
,,,,,,,,,,,
,,,,,,,,,,,
,,,,,,,,,,,
,,,,,,,,,,,
,,,,,,,,,,,
,,,,,,,,,,,
,,,,,,,,,,,
,,,,,,,,,,,
,,,,,,,,,,,
,,,,,,,,,,,
,,,,,,,,,,,
,,,,,,,,,,,
,,,,,,,,,,,
,,,,,,,,,,,
,,,,,,,,,,,
,,,,,,,,,,,
,,,,,,,,,,,
,,,,,,,,,,,
,,,,,,,,,,,
,,,,,,,,,,,
,,,,,,,,,,,
,,,,,,,,,,,
,,,,,,,,,,,
,,,,,,,,,,,
,,,,,,,,,,,
,,,,,,,,,,,
,,,,,,,,,,,
,,,,,,,,,,,
,,,,,,,,,,,
,,,,,,,,,,,
,,,,,,,,,,,
,,,,,,,,,,,
,,,,,,,,,,,
,,,,,,,,,,,
,,,,,,,,,,,
,,,,,,,,,,,
,,,,,,,,,,,
,,,,,,,,,,,
,,,,,,,,,,,
,,,,,,,,,,,
,,,,,,,,,,,
,,,,,,,,,,,
,,,,,,,,,,,
,,,,,,,,,,,
,,,,,,,,,,,
,,,,,,,,,,,
,,,,,,,,,,,
,,,,,,,,,,,
,,,,,,,,,,,
,,,,,,,,,,,
,,,,,,,,,,,
,,,,,,,,,,,
,,,,,,,,,,,
,,,,,,,,,,,
,,,,,,,,,,,
,,,,,,,,,,,
,,,,,,,,,,,
,,,,,,,,,,,
,,,,,,,,,,,
,,,,,,,,,,,
,,,,,,,,,,,
,,,,,,,,,,,
,,,,,,,,,,,
,,,,,,,,,,,
,,,,,,,,,,,
,,,,,,,,,,,
,,,,,,,,,,,
,,,,,,,,,,,
,,,,,,,,,,,
,,,,,,,,,,,
,,,,,,,,,,,
,,,,,,,,,,,
,,,,,,,,,,,
,,,,,,,,,,,
,,,,,,,,,,,
,,,,,,,,,,,
,,,,,,,,,,,
,,,,,,,,,,,
,,,,,,,,,,,
,,,,,,,,,,,
,,,,,,,,,,,
,,,,,,,,,,,
,,,,,,,,,,,
,,,,,,,,,,,
,,,,,,,,,,,
,,,,,,,,,,,
,,,,,,,,,,,
,,,,,,,,,,,
,,,,,,,,,,,
,,,,,,,,,,,
,,,,,,,,,,,
,,,,,,,,,,,
,,,,,,,,,,,
,,,,,,,,,,,
,,,,,,,,,,,
,,,,,,,,,,,
,,,,,,,,,,,
,,,,,,,,,,,
,,,,,,,,,,,
,,,,,,,,,,,
,,,,,,,,,,,
,,,,,,,,,,,
,,,,,,,,,,,
,,,,,,,,,,,
,,,,,,,,,,,
,,,,,,,,,,,
,,,,,,,,,,,
,,,,,,,,,,,
,,,,,,,,,,,
,,,,,,,,,,,
,,,,,,,,,,,
,,,,,,,,,,,
,,,,,,,,,,,
,,,,,,,,,,,
,,,,,,,,,,,
,,,,,,,,,,,
,,,,,,,,,,,
,,,,,,,,,,,
,,,,,,,,,,,
,,,,,,,,,,,
,,,,,,,,,,,
,,,,,,,,,,,
,,,,,,,,,,,
,,,,,,,,,,,
,,,,,,,,,,,
,,,,,,,,,,,
,,,,,,,,,,,
,,,,,,,,,,,
,,,,,,,,,,,
,,,,,,,,,,,
,,,,,,,,,,,
,,,,,,,,,,,
,,,,,,,,,,,
,,,,,,,,,,,
,,,,,,,,,,,
,,,,,,,,,,,
,,,,,,,,,,,
,,,,,,,,,,,
,,,,,,,,,,,
,,,,,,,,,,,
,,,,,,,,,,,
,,,,,,,,,,,
,,,,,,,,,,,
,,,,,,,,,,,
,,,,,,,,,,,
,,,,,,,,,,,
,,,,,,,,,,,
,,,,,,,,,,,
,,,,,,,,,,,
,,,,,,,,,,,
,,,,,,,,,,,
,,,,,,,,,,,
,,,,,,,,,,,
,,,,,,,,,,,
,,,,,,,,,,,
,,,,,,,,,,,
,,,,,,,,,,,
,,,,,,,,,,,
,,,,,,,,,,,
,,,,,,,,,,,
,,,,,,,,,,,
,,,,,,,,,,,
,,,,,,,,,,,
,,,,,,,,,,,
,,,,,,,,,,,
,,,,,,,,,,,
,,,,,,,,,,,
,,,,,,,,,,,
,,,,,,,,,,,
,,,,,,,,,,,
,,,,,,,,,,,
,,,,,,,,,,,
,,,,,,,,,,,
,,,,,,,,,,,
,,,,,,,,,,,
,,,,,,,,,,,
,,,,,,,,,,,
,,,,,,,,,,,
,,,,,,,,,,,
,,,,,,,,,,,
,,,,,,,,,,,
,,,,,,,,,,,
,,,,,,,,,,,
,,,,,,,,,,,
,,,,,,,,,,,
,,,,,,,,,,,
,,,,,,,,,,,
,,,,,,,,,,,
,,,,,,,,,,,
,,,,,,,,,,,
,,,,,,,,,,,
,,,,,,,,,,,
,,,,,,,,,,,
,,,,,,,,,,,
,,,,,,,,,,,
,,,,,,,,,,,
,,,,,,,,,,,
,,,,,,,,,,,
,,,,,,,,,,,
,,,,,,,,,,,
,,,,,,,,,,,
,,,,,,,,,,,
,,,,,,,,,,,
,,,,,,,,,,,
,,,,,,,,,,,
,,,,,,,,,,,
,,,,,,,,,,,
,,,,,,,,,,,
,,,,,,,,,,,
,,,,,,,,,,,
,,,,,,,,,,,
,,,,,,,,,,,
,,,,,,,,,,,
,,,,,,,,,,,
,,,,,,,,,,,
,,,,,,,,,,,
,,,,,,,,,,,
,,,,,,,,,,,
,,,,,,,,,,,
,,,,,,,,,,,
,,,,,,,,,,,
,,,,,,,,,,,
,,,,,,,,,,,
,,,,,,,,,,,
,,,,,,,,,,,
,,,,,,,,,,,
,,,,,,,,,,,
,,,,,,,,,,,
,,,,,,,,,,,
,,,,,,,,,,,
,,,,,,,,,,,
,,,,,,,,,,,
,,,,,,,,,,,
,,,,,,,,,,,
,,,,,,,,,,,
,,,,,,,,,,,
,,,,,,,,,,,
,,,,,,,,,,,
,,,,,,,,,,,
,,,,,,,,,,,
,,,,,,,,,,,
,,,,,,,,,,,
,,,,,,,,,,,
,,,,,,,,,,,
,,,,,,,,,,,
,,,,,,,,,,,
,,,,,,,,,,,
,,,,,,,,,,,
,,,,,,,,,,,
,,,,,,,,,,,
,,,,,,,,,,,
,,,,,,,,,,,
,,,,,,,,,,,
,,,,,,,,,,,
,,,,,,,,,,,
,,,,,,,,,,,
,,,,,,,,,,,
,,,,,,,,,,,
,,,,,,,,,,,
,,,,,,,,,,,
,,,,,,,,,,,
,,,,,,,,,,,
,,,,,,,,,,,
,,,,,,,,,,,
,,,,,,,,,,,
,,,,,,,,,,,
,,,,,,,,,,,
,,,,,,,,,,,
,,,,,,,,,,,
,,,,,,,,,,,
,,,,,,,,,,,
,,,,,,,,,,,
,,,,,,,,,,,
,,,,,,,,,,,
,,,,,,,,,,,
,,,,,,,,,,,
,,,,,,,,,,,
,,,,,,,,,,,
,,,,,,,,,,,
,,,,,,,,,,,
,,,,,,,,,,,
,,,,,,,,,,,
,,,,,,,,,,,
,,,,,,,,,,,
-700,-21236,-1618,-0.09,-1.28,-1.12,-211,-717,8338,0.26,-9.89,125.44
-7018,-16664,536,-0.48,-1,-0.99,-4215,-2333,9241,-60.87,-34.56,139.22
-7302,-15942,-3526,-0.5,-0.95,-1.24,-4907,-3082,13613,-71.44,-46,205.97
-9526,-12170,-1870,-0.63,-0.72,-1.14,3530,-7349,14375,57.37,-111.15,217.6
-12202,-5868,1962,-0.79,-0.34,-0.91,7207,-9318,15133,113.51,-141.21,229.18
-13420,-678,4354,-0.87,-0.02,-0.76,3545,-585,12173,57.6,-7.88,183.98
-10304,5296,3834,-0.68,0.34,-0.79,5943,-3262,20507,94.21,-48.75,311.22
-5486,10926,1534,-0.38,0.69,-0.93,6216,281,19445,98.38,5.34,295.01
-9378,13314,4512,-0.62,0.83,-0.75,789,-5678,4202,15.53,-85.63,62.29
-6616,16380,3228,-0.45,1.02,-0.83,226,547,4334,6.93,9.4,64.31
-3430,16312,1420,-0.26,1.02,-0.94,-1311,4702,1957,-16.53,72.84,28.02
-3418,15816,1504,-0.26,0.99,-0.93,-130,4062,92,1.5,63.07,-0.46
-578,17450,4024,-0.09,1.09,-0.78,554,1815,3909,11.94,28.76,57.82
-1568,14660,428,-0.15,0.91,-1,1538,1132,1860,26.96,18.34,26.53
-546,16038,-280,-0.08,1,-1.04,1841,-1978,1286,31.59,-29.15,17.77
2112,16448,-294,0.08,1.02,-1.04,602,195,688,12.67,4.03,8.64
-416,15572,-880,-0.08,0.97,-1.08,100,-378,-21,5.01,-4.72,-2.18
806,16126,-352,0,1,-1.05,65,-128,-346,4.47,-0.9,-7.15
-244,16152,-1058,-0.06,1.01,-1.09,16,-1517,99,3.73,-22.11,-0.35
1160,16320,-92,0.02,1.02,-1.03,-745,-2090,678,-7.89,-30.85,8.49
-1368,14492,-1016,-0.13,0.9,-1.09,-623,268,1163,-6.03,5.15,15.89
2316,15960,-850,0.09,0.99,-1.08,14,-1817,135,3.69,-26.69,0.2
32,15934,-52,-0.05,0.99,-1.03,-366,-164,508,-2.11,-1.45,5.89
-884,15954,980,-0.1,0.99,-0.97,-190,-19,146,0.58,0.76,0.37
880,16052,-282,0,1,-1.04,-171,-134,475,0.87,-0.99,5.39
-1142,16130,-212,-0.12,1,-1.04,-546,-1663,314,-4.85,-24.34,2.93
1288,16172,-1116,0.03,1.01,-1.09,-348,-666,251,-1.83,-9.11,1.97
204,15980,-224,-0.04,1,-1.04,-236,-66,122,-0.12,0.05,0
500,16008,-222,-0.02,1,-1.04,-188,-64,76,0.61,0.08,-0.7
-556,15874,-74,-0.08,0.99,-1.03,-82,-328,-81,2.23,-3.95,-3.1
-124,16184,454,-0.06,1.01,-1,-317,-2867,138,-1.36,-42.72,0.24
1868,15496,-922,0.06,0.97,-1.08,-202,-1807,134,0.4,-26.53,0.18
1580,15944,-546,0.05,0.99,-1.06,-221,-318,231,0.11,-3.8,1.66
296,15928,-118,-0.03,0.99,-1.03,-122,-1230,198,1.62,-17.73,1.16
-218,16002,850,-0.06,1,-0.97,-190,-2018,282,0.58,-29.76,2.44
192,16058,-140,-0.04,1,-1.03,-83,-1390,77,2.21,-20.17,-0.69
-234,15848,316,-0.06,0.99,-1.01,-137,-74,82,1.39,-0.08,-0.61
408,15974,4,-0.02,0.99,-1.02,-101,-127,221,1.94,-0.89,1.51
704,15898,216,-0.01,0.99,-1.01,-243,-79,185,-0.23,-0.15,0.96
698,15886,-18,-0.01,0.99,-1.03,-288,-71,158,-0.92,-0.03,0.55
632,16038,-104,-0.01,1,-1.03,-246,-71,158,-0.27,-0.03,0.55
