accX,accY,accZ,accX_cal,accY_cal,accZ_cal,gyroX,gyroY,gyroZ,gyroX_cal,gyroY_cal,gyroZ_cal
17300,-296,-136,1.01,0,-1.03,-235,-83,110,-0.11,-0.21,-0.18
17150,-454,112,1,-0.01,-1.02,-223,-47,125,0.08,0.34,0.05
17150,-410,180,1,-0.01,-1.01,-230,-80,124,-0.03,-0.17,0.03
17162,-380,122,1,0,-1.02,-225,-63,117,0.05,0.09,-0.08
17152,-290,130,1,0,-1.02,-226,-66,126,0.03,0.05,0.06
17236,-344,34,1,0,-1.02,-235,-75,125,-0.11,-0.09,0.05
17168,-314,-48,1,0,-1.03,-222,-68,127,0.09,0.02,0.08
17090,-318,150,0.99,0,-1.02,-222,-61,113,0.09,0.12,-0.14
17094,-302,-66,0.99,0,-1.03,-223,-72,116,0.08,-0.05,-0.09
17126,-326,106,1,0,-1.02,-230,-79,124,-0.03,-0.15,0.03
17070,-306,90,0.99,0,-1.02,-226,-69,127,0.03,0,0.08
17158,-340,14,1,0,-1.02,-230,-68,120,-0.03,0.02,-0.03
17146,-364,182,1,0,-1.01,-231,-68,125,-0.05,0.02,0.05
17068,-392,62,0.99,0,-1.02,-235,-66,123,-0.11,0.05,0.02
17156,-344,130,1,0,-1.02,-234,-70,119,-0.09,-0.02,-0.05
17146,-376,118,1,0,-1.02,-224,-65,120,0.06,0.06,-0.03
17180,-368,92,1,0,-1.02,-222,-54,115,0.09,0.23,-0.11
17138,-368,30,1,0,-1.02,-226,-67,118,0.03,0.03,-0.06
17138,-394,-76,1,0,-1.03,-229,-69,124,-0.02,0,0.03
17092,-360,-8,0.99,0,-1.03,-229,-62,127,-0.02,0.11,0.08
17184,-362,46,1,0,-1.02,-229,-68,112,-0.02,0.02,-0.15
17182,-334,30,1,0,-1.02,-223,-69,125,0.08,0,0.05
17130,-356,72,1,0,-1.02,-232,-69,118,-0.06,0,-0.06
17128,-352,96,1,0,-1.02,-221,-64,116,0.11,0.08,-0.09
17176,-234,56,1,0.01,-1.02,-223,-69,123,0.08,0,0.02
17246,-350,126,1,0,-1.02,-229,-73,129,-0.02,-0.06,0.11
17106,-312,62,0.99,0,-1.02,-229,-67,120,-0.02,0.03,-0.03
17126,-382,16,1,0,-1.02,-221,-67,125,0.11,0.03,0.05
17126,-324,66,1,0,-1.02,-230,-69,110,-0.03,0,-0.18
17172,-416,90,1,-0.01,-1.02,-236,-64,125,-0.12,0.08,0.05
17158,-246,78,1,0,-1.02,-229,-68,124,-0.02,0.02,0.03
17174,-480,122,1,-0.01,-1.02,-232,-61,126,-0.06,0.12,0.06
17180,-272,40,1,0,-1.02,-236,-74,124,-0.12,-0.08,0.03
17056,-376,112,0.99,0,-1.02,-235,-57,119,-0.11,0.18,-0.05
17100,-360,104,0.99,0,-1.02,-242,-65,125,-0.21,0.06,0.05
17208,-386,186,1,0,-1.01,-227,-58,120,0.02,0.17,-0.03
17114,-270,144,0.99,0,-1.02,-237,-59,122,-0.14,0.15,0
17134,-324,76,1,0,-1.02,-232,-77,129,-0.06,-0.12,0.11
17134,-348,132,1,0,-1.02,-228,-68,124,0,0.02,0.03
17202,-298,106,1,0,-1.02,-234,-67,129,-0.09,0.03,0.11
17206,-406,120,1,0,-1.02,-227,-67,126,0.02,0.03,0.06
17270,-272,162,1,0,-1.02,-229,-64,119,-0.02,0.08,-0.05
17154,-440,124,1,-0.01,-1.02,-235,-67,119,-0.11,0.03,-0.05
17274,-332,-58,1,0,-1.03,-225,-76,122,0.05,-0.11,0
17110,-276,28,0.99,0,-1.02,-230,-77,127,-0.03,-0.12,0.08
17126,-350,-6,1,0,-1.03,-228,-75,124,0,-0.09,0.03
17152,-406,18,1,0,-1.02,-230,-72,115,-0.03,-0.05,-0.11
17156,-390,98,1,0,-1.02,-227,-71,122,0.02,-0.03,0
17204,-282,152,1,0,-1.02,-230,-60,119,-0.03,0.14,-0.05
17260,-322,194,1,0,-1.01,-227,-73,116,0.02,-0.06,-0.09
17158,-318,26,1,0,-1.02,-226,-67,127,0.03,0.03,0.08
17246,-436,128,1,-0.01,-1.02,-226,-61,125,0.03,0.12,0.05
17154,-282,132,1,0,-1.02,-221,-67,117,0.11,0.03,-0.08
17174,-410,102,1,-0.01,-1.02,-224,-65,123,0.06,0.06,0.02
17092,-324,136,0.99,0,-1.02,-234,-63,124,-0.09,0.09,0.03
17144,-386,124,1,0,-1.02,-234,-73,125,-0.09,-0.06,0.05
17174,-330,18,1,0,-1.02,-241,-68,114,-0.2,0.02,-0.12
17166,-396,102,1,0,-1.02,-231,-72,114,-0.05,-0.05,-0.12
17078,-350,88,0.99,0,-1.02,-229,-70,116,-0.02,-0.02,-0.09
17168,-402,100,1,0,-1.02,-222,-70,132,0.09,-0.02,0.15
17198,-350,144,1,0,-1.02,-230,-70,118,-0.03,-0.02,-0.06
17184,-348,124,1,0,-1.02,-233,-72,118,-0.08,-0.05,-0.06
17140,-366,56,1,0,-1.02,-230,-73,124,-0.03,-0.06,0.03
17062,-314,178,0.99,0,-1.01,-228,-66,121,0,0.05,-0.02
17198,-354,118,1,0,-1.02,-225,-75,116,0.05,-0.09,-0.09
17186,-352,-20,1,0,-1.03,-237,-74,123,-0.14,-0.08,0.02
17208,-388,54,1,0,-1.02,-217,-57,121,0.17,0.18,-0.02
17158,-276,56,1,0,-1.02,-226,-73,127,0.03,-0.06,0.08
17140,-374,68,1,0,-1.02,-230,-74,123,-0.03,-0.08,0.02
17202,-346,160,1,0,-1.02,-220,-64,122,0.12,0.08,0
17188,-368,102,1,0,-1.02,-226,-73,124,0.03,-0.06,0.03
17176,-344,32,1,0,-1.02,-226,-65,126,0.03,0.06,0.06
17158,-292,-8,1,0,-1.03,-221,-67,128,0.11,0.03,0.09
17138,-402,78,1,0,-1.02,-226,-67,117,0.03,0.03,-0.08
17192,-372,24,1,0,-1.02,-231,-74,119,-0.05,-0.08,-0.05
17182,-334,48,1,0,-1.02,-217,-66,122,0.17,0.05,0
17142,-386,144,1,0,-1.02,-239,-65,129,-0.17,0.06,0.11
17100,-382,32,0.99,0,-1.02,-222,-78,119,0.09,-0.14,-0.05
17230,-374,146,1,0,-1.02,-222,-76,112,0.09,-0.11,-0.15
17184,-354,130,1,0,-1.02,-235,-68,123,-0.11,0.02,0.02
17150,-334,118,1,0,-1.02,-223,-67,120,0.08,0.03,-0.03
17142,-326,126,1,0,-1.02,-221,-75,121,0.11,-0.09,-0.02
17040,-352,204,0.99,0,-1.01,-235,-63,126,-0.11,0.09,0.06
17162,-366,68,1,0,-1.02,-224,-59,113,0.06,0.15,-0.14
17196,-414,288,1,-0.01,-1.01,-221,-79,120,0.11,-0.15,-0.03
17142,-358,120,1,0,-1.02,-237,-73,122,-0.14,-0.06,0
17198,-342,42,1,0,-1.02,-225,-70,121,0.05,-0.02,-0.02
17184,-384,90,1,0,-1.02,-230,-65,119,-0.03,0.06,-0.05
17238,-338,116,1,0,-1.02,-223,-71,125,0.08,-0.03,0.05
17178,-382,54,1,0,-1.02,-228,-73,124,0,-0.06,0.03
17132,-308,100,1,0,-1.02,-241,-64,129,-0.2,0.08,0.11
17132,-360,126,1,0,-1.02,-224,-65,119,0.06,0.06,-0.05
17264,-306,58,1,0,-1.02,-222,-70,129,0.09,-0.02,0.11
17170,-400,34,1,0,-1.02,-232,-67,117,-0.06,0.03,-0.08
17122,-368,100,1,0,-1.02,-223,-75,116,0.08,-0.09,-0.09
17200,-396,92,1,0,-1.02,-229,-64,118,-0.02,0.08,-0.06
17110,-358,118,0.99,0,-1.02,-227,-65,120,0.02,0.06,-0.03
17182,-340,46,1,0,-1.02,-223,-78,115,0.08,-0.14,-0.11
17130,-374,-18,1,0,-1.03,-240,-77,124,-0.18,-0.12,0.03
17144,-266,114,1,0,-1.02,-225,-74,115,0.05,-0.08,-0.11
17160,-306,-102,1,0,-1.03,-232,-74,125,-0.06,-0.08,0.05
17196,-328,18,1,0,-1.02,-231,-73,128,-0.05,-0.06,0.09
17118,-372,6,0.99,0,-1.02,-225,-68,115,0.05,0.02,-0.11
17118,-398,-52,0.99,0,-1.03,-227,-73,114,0.02,-0.06,-0.12
17140,-326,120,1,0,-1.02,-223,-71,121,0.08,-0.03,-0.02
17138,-312,24,1,0,-1.02,-229,-58,120,-0.02,0.17,-0.03
17140,-394,30,1,0,-1.02,-229,-68,127,-0.02,0.02,0.08
17128,-390,182,1,0,-1.01,-232,-77,125,-0.06,-0.12,0.05
17180,-420,54,1,-0.01,-1.02,-230,-69,119,-0.03,0,-0.05
17088,-382,102,0.99,0,-1.02,-234,-73,119,-0.09,-0.06,-0.05
17168,-382,152,1,0,-1.02,-235,-79,116,-0.11,-0.15,-0.09
17152,-308,168,1,0,-1.01,-233,-71,121,-0.08,-0.03,-0.02
17124,-354,14,1,0,-1.02,-232,-73,130,-0.06,-0.06,0.12
17146,-446,92,1,-0.01,-1.02,-229,-61,122,-0.02,0.12,0
17086,-298,88,0.99,0,-1.02,-233,-71,118,-0.08,-0.03,-0.06
17084,-378,200,0.99,0,-1.01,-230,-70,120,-0.03,-0.02,-0.03
17106,-404,110,0.99,0,-1.02,-224,-84,126,0.06,-0.23,0.06
17126,-340,24,1,0,-1.02,-218,-74,118,0.15,-0.08,-0.06
17186,-316,204,1,0,-1.01,-234,-63,119,-0.09,0.09,-0.05
17102,-330,18,0.99,0,-1.02,-224,-69,119,0.06,0,-0.05
17186,-346,104,1,0,-1.02,-231,-69,112,-0.05,0,-0.15
17044,-350,60,0.99,0,-1.02,-230,-64,125,-0.03,0.08,0.05
17108,-356,156,0.99,0,-1.02,-228,-68,124,0,0.02,0.03
17240,-402,144,1,0,-1.02,-239,-63,129,-0.17,0.09,0.11
17130,-384,-20,1,0,-1.03,-225,-75,118,0.05,-0.09,-0.06
17128,-436,-18,1,-0.01,-1.03,-228,-73,118,0,-0.06,-0.06
17202,-372,34,1,0,-1.02,-220,-68,121,0.12,0.02,-0.02
17146,-426,100,1,-0.01,-1.02,-229,-84,127,-0.02,-0.23,0.08
17192,-312,118,1,0,-1.02,-219,-69,128,0.14,0,0.09
17054,-354,166,0.99,0,-1.01,-231,-77,127,-0.05,-0.12,0.08
17256,-394,132,1,0,-1.02,-227,-72,127,0.02,-0.05,0.08
17108,-352,112,0.99,0,-1.02,-226,-66,125,0.03,0.05,0.05
17126,-446,6,1,-0.01,-1.02,-236,-68,119,-0.12,0.02,-0.05
17142,-340,120,1,0,-1.02,-229,-65,118,-0.02,0.06,-0.06
17166,-382,108,1,0,-1.02,-230,-74,125,-0.03,-0.08,0.05
17202,-322,68,1,0,-1.02,-230,-85,120,-0.03,-0.24,-0.03
17158,-328,92,1,0,-1.02,-232,-72,120,-0.06,-0.05,-0.03
17092,-416,172,0.99,-0.01,-1.01,-229,-62,122,-0.02,0.11,0
17178,-342,164,1,0,-1.01,-228,-76,126,0,-0.11,0.06
17146,-342,166,1,0,-1.01,-222,-72,123,0.09,-0.05,0.02
17142,-294,160,1,0,-1.02,-232,-58,126,-0.06,0.17,0.06
17188,-332,102,1,0,-1.02,-226,-67,116,0.03,0.03,-0.09
17164,-370,-56,1,0,-1.03,-216,-63,121,0.18,0.09,-0.02
17168,-376,14,1,0,-1.02,-227,-74,121,0.02,-0.08,-0.02
17204,-348,120,1,0,-1.02,-225,-67,121,0.05,0.03,-0.02
17134,-338,22,1,0,-1.02,-228,-76,128,0,-0.11,0.09
17142,-340,128,1,0,-1.02,-235,-70,128,-0.11,-0.02,0.09
17144,-360,-26,1,0,-1.03,-222,-57,122,0.09,0.18,0
17174,-334,80,1,0,-1.02,-225,-68,119,0.05,0.02,-0.05
17196,-356,76,1,0,-1.02,-231,-63,128,-0.05,0.09,0.09
17198,-316,28,1,0,-1.02,-219,-64,125,0.14,0.08,0.05
17184,-342,94,1,0,-1.02,-234,-68,121,-0.09,0.02,-0.02
17120,-408,68,1,0,-1.02,-224,-71,120,0.06,-0.03,-0.03
17140,-344,176,1,0,-1.01,-226,-61,123,0.03,0.12,0.02
17226,-392,114,1,0,-1.02,-228,-64,121,0,0.08,-0.02
17116,-352,82,0.99,0,-1.02,-225,-62,124,0.05,0.11,0.03
17208,-414,128,1,-0.01,-1.02,-229,-66,121,-0.02,0.05,-0.02
17178,-414,154,1,-0.01,-1.02,-221,-72,118,0.11,-0.05,-0.06
17228,-394,138,1,0,-1.02,-228,-64,123,0,0.08,0.02
17160,-356,108,1,0,-1.02,-233,-66,124,-0.08,0.05,0.03
17128,-416,74,1,-0.01,-1.02,-233,-68,117,-0.08,0.02,-0.08
17130,-374,160,1,0,-1.02,-232,-82,119,-0.06,-0.2,-0.05
17182,-338,68,1,0,-1.02,-227,-81,119,0.02,-0.18,-0.05
17122,-368,120,1,0,-1.02,-230,-62,115,-0.03,0.11,-0.11
17198,-344,190,1,0,-1.01,-233,-66,121,-0.08,0.05,-0.02
17156,-400,68,1,0,-1.02,-240,-73,124,-0.18,-0.06,0.03
17116,-406,308,0.99,0,-1.01,-225,-58,137,0.05,0.17,0.23
17224,-362,56,1,0,-1.02,-235,-80,115,-0.11,-0.17,-0.11
17166,-342,82,1,0,-1.02,-238,-70,129,-0.15,-0.02,0.11
17142,-376,68,1,0,-1.02,-228,-56,114,0,0.2,-0.12
17204,-320,-10,1,0,-1.03,-235,-63,117,-0.11,0.09,-0.08
17204,-408,40,1,0,-1.02,-230,-71,119,-0.03,-0.03,-0.05
17182,-316,150,1,0,-1.02,-229,-75,127,-0.02,-0.09,0.08
17172,-378,14,1,0,-1.02,-234,-73,116,-0.09,-0.06,-0.09
17212,-262,106,1,0,-1.02,-227,-69,128,0.02,0,0.09
17180,-438,184,1,-0.01,-1.01,-231,-67,113,-0.05,0.03,-0.14
17208,-358,20,1,0,-1.02,-230,-64,124,-0.03,0.08,0.03
17182,-404,268,1,0,-1.01,-232,-55,130,-0.06,0.21,0.12
17150,-382,114,1,0,-1.02,-229,-59,126,-0.02,0.15,0.06
17148,-394,226,1,0,-1.01,-224,-66,126,0.06,0.05,0.06
17142,-436,34,1,-0.01,-1.02,-226,-79,124,0.03,-0.15,0.03
17216,-364,50,1,0,-1.02,-222,-61,126,0.09,0.12,0.06
17188,-380,62,1,0,-1.02,-231,-59,131,-0.05,0.15,0.14
17120,-384,160,1,0,-1.02,-224,-63,121,0.06,0.09,-0.02
17206,-384,48,1,0,-1.02,-220,-78,117,0.12,-0.14,-0.08
17184,-338,52,1,0,-1.02,-229,-63,121,-0.02,0.09,-0.02
17146,-426,122,1,-0.01,-1.02,-232,-60,111,-0.06,0.14,-0.17
17170,-484,2,1,-0.01,-1.02,-228,-70,124,0,-0.02,0.03
17142,-334,52,1,0,-1.02,-218,-76,116,0.15,-0.11,-0.09
17098,-362,80,0.99,0,-1.02,-232,-64,119,-0.06,0.08,-0.05
17226,-376,126,1,0,-1.02,-228,-67,117,0,0.03,-0.08
17172,-354,50,1,0,-1.02,-221,-68,130,0.11,0.02,0.12
17160,-358,106,1,0,-1.02,-226,-64,116,0.03,0.08,-0.09
17238,-264,148,1,0,-1.02,-228,-66,129,0,0.05,0.11
17146,-432,76,1,-0.01,-1.02,-218,-60,127,0.15,0.14,0.08
17158,-376,142,1,0,-1.02,-228,-70,127,0,-0.02,0.08
17186,-322,104,1,0,-1.02,-231,-79,129,-0.05,-0.15,0.11
17156,-298,168,1,0,-1.01,-229,-70,125,-0.02,-0.02,0.05
17102,-304,-6,0.99,0,-1.03,-229,-63,124,-0.02,0.09,0.03
17152,-412,92,1,-0.01,-1.02,-230,-72,134,-0.03,-0.05,0.18
17092,-416,102,0.99,-0.01,-1.02,-233,-70,138,-0.08,-0.02,0.24
17046,-414,96,0.99,-0.01,-1.02,-232,-76,125,-0.06,-0.11,0.05
17100,-310,62,0.99,0,-1.02,-232,-71,118,-0.06,-0.03,-0.06
17116,-334,202,0.99,0,-1.01,-218,-71,120,0.15,-0.03,-0.03
17114,-362,22,0.99,0,-1.02,-224,-54,126,0.06,0.23,0.06
17168,-420,96,1,-0.01,-1.02,-229,-63,119,-0.02,0.09,-0.05
17210,-374,38,1,0,-1.02,-232,-76,127,-0.06,-0.11,0.08
17224,-370,42,1,0,-1.02,-231,-81,119,-0.05,-0.18,-0.05
17164,-380,76,1,0,-1.02,-228,-80,125,0,-0.17,0.05
17164,-396,74,1,0,-1.02,-227,-68,126,0.02,0.02,0.06
17160,-370,186,1,0,-1.01,-231,-68,124,-0.05,0.02,0.03
17206,-312,52,1,0,-1.02,-229,-60,122,-0.02,0.14,0
17172,-310,70,1,0,-1.02,-226,-66,129,0.03,0.05,0.11
17290,-342,186,1.01,0,-1.01,-218,-74,126,0.15,-0.08,0.06
17178,-346,60,1,0,-1.02,-220,-70,118,0.12,-0.02,-0.06
17226,-426,80,1,-0.01,-1.02,-226,-73,122,0.03,-0.06,0
17138,-376,148,1,0,-1.02,-227,-65,121,0.02,0.06,-0.02
17126,-370,114,1,0,-1.02,-229,-73,125,-0.02,-0.06,0.05
17218,-320,216,1,0,-1.01,-224,-63,128,0.06,0.09,0.09
17160,-334,16,1,0,-1.02,-224,-72,116,0.06,-0.05,-0.09
17172,-300,150,1,0,-1.02,-226,-63,126,0.03,0.09,0.06
17116,-360,192,0.99,0,-1.01,-228,-76,124,0,-0.11,0.03
17248,-398,76,1,0,-1.02,-231,-69,128,-0.05,0,0.09
17080,-362,122,0.99,0,-1.02,-220,-69,121,0.12,0,-0.02
17108,-408,36,0.99,0,-1.02,-236,-70,126,-0.12,-0.02,0.06
17184,-356,40,1,0,-1.02,-230,-68,127,-0.03,0.02,0.08
17184,-380,162,1,0,-1.02,-224,-74,124,0.06,-0.08,0.03
17222,-318,28,1,0,-1.02,-237,-75,113,-0.14,-0.09,-0.14
17142,-378,86,1,0,-1.02,-233,-75,123,-0.08,-0.09,0.02
17180,-326,-24,1,0,-1.03,-232,-67,122,-0.06,0.03,0
17234,-328,100,1,0,-1.02,-233,-77,125,-0.08,-0.12,0.05
17146,-276,60,1,0,-1.02,-229,-68,129,-0.02,0.02,0.11
17156,-394,64,1,0,-1.02,-224,-72,120,0.06,-0.05,-0.03
17158,-356,126,1,0,-1.02,-216,-75,123,0.18,-0.09,0.02
17152,-396,128,1,0,-1.02,-239,-67,123,-0.17,0.03,0.02
17096,-412,106,0.99,-0.01,-1.02,-240,-63,129,-0.18,0.09,0.11
17158,-396,176,1,0,-1.01,-217,-60,122,0.17,0.14,0
17246,-382,42,1,0,-1.02,-222,-78,118,0.09,-0.14,-0.06
17136,-400,50,1,0,-1.02,-237,-63,122,-0.14,0.09,0
17212,-364,256,1,0,-1.01,-231,-64,121,-0.05,0.08,-0.02
17228,-336,156,1,0,-1.02,-221,-73,118,0.11,-0.06,-0.06
17240,-350,156,1,0,-1.02,-233,-71,123,-0.08,-0.03,0.02
17170,-334,60,1,0,-1.02,-231,-62,128,-0.05,0.11,0.09
17274,-338,30,1,0,-1.02,-231,-71,122,-0.05,-0.03,0
17140,-390,114,1,0,-1.02,-223,-61,126,0.08,0.12,0.06
17240,-368,164,1,0,-1.01,-226,-72,121,0.03,-0.05,-0.02
17144,-302,40,1,0,-1.02,-230,-68,115,-0.03,0.02,-0.11
17156,-384,138,1,0,-1.02,-229,-73,126,-0.02,-0.06,0.06
17158,-300,206,1,0,-1.01,-227,-74,114,0.02,-0.08,-0.12
17288,-334,184,1.01,0,-1.01,-229,-62,121,-0.02,0.11,-0.02
17226,-266,-18,1,0,-1.03,-237,-60,123,-0.14,0.14,0.02
17140,-328,-14,1,0,-1.03,-227,-70,121,0.02,-0.02,-0.02
17148,-440,84,1,-0.01,-1.02,-228,-72,124,0,-0.05,0.03
17112,-372,112,0.99,0,-1.02,-232,-74,117,-0.06,-0.08,-0.08
17276,-342,114,1,0,-1.02,-234,-73,121,-0.09,-0.06,-0.02
17164,-322,174,1,0,-1.01,-234,-70,118,-0.09,-0.02,-0.06
17116,-336,132,0.99,0,-1.02,-226,-67,124,0.03,0.03,0.03
17146,-368,30,1,0,-1.02,-236,-68,118,-0.12,0.02,-0.06
17200,-304,-4,1,0,-1.03,-230,-64,126,-0.03,0.08,0.06
17120,-298,18,1,0,-1.02,-230,-71,124,-0.03,-0.03,0.03
17244,-338,88,1,0,-1.02,-231,-81,125,-0.05,-0.18,0.05
17144,-414,80,1,-0.01,-1.02,-222,-68,126,0.09,0.02,0.06
17138,-360,20,1,0,-1.02,-224,-75,128,0.06,-0.09,0.09
17160,-352,94,1,0,-1.02,-226,-67,116,0.03,0.03,-0.09
17244,-294,80,1,0,-1.02,-229,-68,130,-0.02,0.02,0.12
17184,-378,34,1,0,-1.02,-229,-68,119,-0.02,0.02,-0.05
17228,-326,-18,1,0,-1.03,-236,-73,117,-0.12,-0.06,-0.08
17142,-356,-14,1,0,-1.03,-223,-78,119,0.08,-0.14,-0.05
17232,-312,22,1,0,-1.02,-222,-70,126,0.09,-0.02,0.06
17146,-426,186,1,-0.01,-1.01,-231,-74,127,-0.05,-0.08,0.08
16960,-402,34,0.99,0,-1.02,-232,-94,129,-0.06,-0.38,0.11
17206,-418,174,1,-0.01,-1.01,-229,-61,127,-0.02,0.12,0.08
17204,-358,34,1,0,-1.02,-228,-70,119,0,-0.02,-0.05
17206,-330,-20,1,0,-1.03,-233,-77,120,-0.08,-0.12,-0.03
17194,-286,126,1,0,-1.02,-230,-56,126,-0.03,0.2,0.06
17144,-268,86,1,0,-1.02,-225,-68,133,0.05,0.02,0.17
17138,-408,50,1,0,-1.02,-224,-70,118,0.06,-0.02,-0.06
17112,-350,32,0.99,0,-1.02,-228,-61,116,0,0.12,-0.09
17184,-364,106,1,0,-1.02,-222,-58,116,0.09,0.17,-0.09
17192,-374,122,1,0,-1.02,-231,-78,106,-0.05,-0.14,-0.24
17178,-372,42,1,0,-1.02,-224,-66,128,0.06,0.05,0.09
17252,-362,140,1,0,-1.02,-229,-70,126,-0.02,-0.02,0.06
17110,-418,172,0.99,-0.01,-1.01,-231,-68,119,-0.05,0.02,-0.05
17164,-384,56,1,0,-1.02,-219,-63,118,0.14,0.09,-0.06
17096,-366,130,0.99,0,-1.02,-229,-67,117,-0.02,0.03,-0.08
17200,-338,146,1,0,-1.02,-229,-59,115,-0.02,0.15,-0.11
17214,-304,38,1,0,-1.02,-226,-56,117,0.03,0.2,-0.08
17202,-260,76,1,0,-1.02,-222,-74,114,0.09,-0.08,-0.12
17106,-352,90,0.99,0,-1.02,-223,-63,120,0.08,0.09,-0.03
17142,-418,110,1,-0.01,-1.02,-222,-68,123,0.09,0.02,0.02
17196,-372,42,1,0,-1.02,-227,-61,126,0.02,0.12,0.06
17162,-356,110,1,0,-1.02,-224,-69,126,0.06,0,0.06
17070,-374,148,0.99,0,-1.02,-232,-62,123,-0.06,0.11,0.02
17198,-470,42,1,-0.01,-1.02,-229,-64,114,-0.02,0.08,-0.12
17094,-378,152,0.99,0,-1.02,-217,-64,127,0.17,0.08,0.08
17170,-322,72,1,0,-1.02,-224,-69,127,0.06,0,0.08
17162,-390,42,1,0,-1.02,-229,-80,117,-0.02,-0.17,-0.08
17140,-376,106,1,0,-1.02,-228,-73,119,0,-0.06,-0.05
17144,-370,-16,1,0,-1.03,-231,-72,123,-0.05,-0.05,0.02
17198,-370,90,1,0,-1.02,-220,-63,119,0.12,0.09,-0.05
17136,-392,102,1,0,-1.02,-229,-73,118,-0.02,-0.06,-0.06
17184,-420,60,1,-0.01,-1.02,-227,-64,128,0.02,0.08,0.09
17078,-326,180,0.99,0,-1.01,-226,-70,121,0.03,-0.02,-0.02
17260,-338,152,1,0,-1.02,-226,-70,120,0.03,-0.02,-0.03
17234,-310,186,1,0,-1.01,-223,-67,125,0.08,0.03,0.05
17176,-334,14,1,0,-1.02,-224,-69,123,0.06,0,0.02
17172,-440,204,1,-0.01,-1.01,-226,-64,126,0.03,0.08,0.06
17164,-280,168,1,0,-1.01,-229,-69,132,-0.02,0,0.15
17300,-364,158,1.01,0,-1.02,-224,-59,121,0.06,0.15,-0.02
17158,-370,110,1,0,-1.02,-236,-61,120,-0.12,0.12,-0.03
17090,-430,158,0.99,-0.01,-1.02,-225,-73,127,0.05,-0.06,0.08
17186,-318,154,1,0,-1.02,-231,-77,119,-0.05,-0.12,-0.05
17202,-414,-52,1,-0.01,-1.03,-224,-60,111,0.06,0.14,-0.17
17158,-308,12,1,0,-1.02,-232,-80,124,-0.06,-0.17,0.03
17042,-374,62,0.99,0,-1.02,-238,-75,113,-0.15,-0.09,-0.14
17082,-388,84,0.99,0,-1.02,-231,-72,131,-0.05,-0.05,0.14
17146,-380,10,1,0,-1.02,-228,-62,125,0,0.11,0.05
17146,-334,126,1,0,-1.02,-230,-64,120,-0.03,0.08,-0.03
17128,-316,50,1,0,-1.02,-238,-64,123,-0.15,0.08,0.02
17140,-340,198,1,0,-1.01,-229,-72,124,-0.02,-0.05,0.03
17230,-380,114,1,0,-1.02,-232,-76,118,-0.06,-0.11,-0.06
17146,-292,108,1,0,-1.02,-228,-67,120,0,0.03,-0.03
17140,-342,150,1,0,-1.02,-222,-71,128,0.09,-0.03,0.09
17252,-400,106,1,0,-1.02,-223,-73,123,0.08,-0.06,0.02
17242,-318,44,1,0,-1.02,-233,-79,127,-0.08,-0.15,0.08
17226,-342,100,1,0,-1.02,-236,-63,127,-0.12,0.09,0.08
17174,-284,122,1,0,-1.02,-225,-65,123,0.05,0.06,0.02
17110,-294,108,0.99,0,-1.02,-222,-73,120,0.09,-0.06,-0.03
17164,-376,156,1,0,-1.02,-222,-61,117,0.09,0.12,-0.08
17120,-312,110,1,0,-1.02,-228,-71,122,0,-0.03,0
17206,-368,14,1,0,-1.02,-225,-80,120,0.05,-0.17,-0.03
17116,-424,66,0.99,-0.01,-1.02,-222,-64,139,0.09,0.08,0.26
17158,-324,-26,1,0,-1.03,-230,-75,125,-0.03,-0.09,0.05
17174,-368,54,1,0,-1.02,-233,-80,121,-0.08,-0.17,-0.02
17120,-446,246,1,-0.01,-1.01,-235,-59,120,-0.11,0.15,-0.03
17180,-412,92,1,-0.01,-1.02,-230,-66,127,-0.03,0.05,0.08
17228,-358,50,1,0,-1.02,-237,-64,115,-0.14,0.08,-0.11
17182,-392,126,1,0,-1.02,-230,-78,129,-0.03,-0.14,0.11
17182,-344,122,1,0,-1.02,-223,-76,124,0.08,-0.11,0.03
17208,-356,74,1,0,-1.02,-220,-78,123,0.12,-0.14,0.02
17116,-326,92,0.99,0,-1.02,-227,-62,125,0.02,0.11,0.05
17108,-304,8,0.99,0,-1.02,-228,-74,120,0,-0.08,-0.03
17144,-408,42,1,0,-1.02,-231,-78,118,-0.05,-0.14,-0.06
17198,-324,8,1,0,-1.02,-231,-84,126,-0.05,-0.23,0.06
17112,-382,80,0.99,0,-1.02,-226,-62,126,0.03,0.11,0.06
17176,-412,138,1,-0.01,-1.02,-224,-65,117,0.06,0.06,-0.08
17144,-402,210,1,0,-1.01,-229,-63,125,-0.02,0.09,0.05
17274,-342,144,1,0,-1.02,-222,-79,119,0.09,-0.15,-0.05
17214,-392,70,1,0,-1.02,-227,-71,121,0.02,-0.03,-0.02
17152,-398,148,1,0,-1.02,-235,-72,119,-0.11,-0.05,-0.05
17202,-324,230,1,0,-1.01,-215,-68,123,0.2,0.02,0.02
17078,-388,74,0.99,0,-1.02,-237,-76,119,-0.14,-0.11,-0.05
17194,-334,82,1,0,-1.02,-233,-60,127,-0.08,0.14,0.08
17134,-308,172,1,0,-1.01,-226,-75,122,0.03,-0.09,0
17128,-276,42,1,0,-1.02,-230,-68,116,-0.03,0.02,-0.09
17162,-414,46,1,-0.01,-1.02,-227,-66,128,0.02,0.05,0.09
17186,-446,152,1,-0.01,-1.02,-222,-79,123,0.09,-0.15,0.02
17110,-372,18,0.99,0,-1.02,-221,-74,115,0.11,-0.08,-0.11
17118,-392,88,0.99,0,-1.02,-231,-68,129,-0.05,0.02,0.11
17180,-366,78,1,0,-1.02,-237,-73,123,-0.14,-0.06,0.02
17140,-258,92,1,0,-1.02,-223,-61,114,0.08,0.12,-0.12
17170,-404,162,1,0,-1.02,-227,-62,117,0.02,0.11,-0.08
17118,-460,66,0.99,-0.01,-1.02,-227,-72,120,0.02,-0.05,-0.03
17180,-404,110,1,0,-1.02,-224,-66,117,0.06,0.05,-0.08
17198,-442,34,1,-0.01,-1.02,-230,-71,117,-0.03,-0.03,-0.08
17228,-350,-46,1,0,-1.03,-235,-70,124,-0.11,-0.02,0.03
17174,-354,96,1,0,-1.02,-225,-75,126,0.05,-0.09,0.06
17168,-318,46,1,0,-1.02,-231,-70,130,-0.05,-0.02,0.12
17134,-274,84,1,0,-1.02,-228,-73,116,0,-0.06,-0.09
17070,-376,34,0.99,0,-1.02,-229,-74,128,-0.02,-0.08,0.09
17158,-364,178,1,0,-1.01,-234,-71,120,-0.09,-0.03,-0.03
17162,-342,136,1,0,-1.02,-230,-64,120,-0.03,0.08,-0.03
17140,-328,-12,1,0,-1.03,-231,-72,124,-0.05,-0.05,0.03
17122,-322,222,1,0,-1.01,-229,-64,123,-0.02,0.08,0.02
17110,-380,-16,0.99,0,-1.03,-227,-75,117,0.02,-0.09,-0.08
17172,-278,78,1,0,-1.02,-239,-87,121,-0.17,-0.27,-0.02
17182,-304,-12,1,0,-1.03,-233,-71,122,-0.08,-0.03,0
17036,-314,-26,0.99,0,-1.03,-227,-69,116,0.02,0,-0.09
17090,-334,180,0.99,0,-1.01,-224,-68,131,0.06,0.02,0.14
17136,-348,36,1,0,-1.02,-228,-64,126,0,0.08,0.06
17166,-348,176,1,0,-1.01,-232,-77,115,-0.06,-0.12,-0.11
17170,-328,92,1,0,-1.02,-225,-75,117,0.05,-0.09,-0.08
17160,-294,70,1,0,-1.02,-223,-64,132,0.08,0.08,0.15
17174,-338,184,1,0,-1.01,-227,-70,121,0.02,-0.02,-0.02
17102,-330,-72,0.99,0,-1.03,-237,-67,125,-0.14,0.03,0.05
17184,-348,80,1,0,-1.02,-238,-70,122,-0.15,-0.02,0
17142,-410,50,1,-0.01,-1.02,-230,-69,124,-0.03,0,0.03
17158,-348,-8,1,0,-1.03,-235,-71,120,-0.11,-0.03,-0.03
17142,-402,228,1,0,-1.01,-235,-64,124,-0.11,0.08,0.03
17176,-278,94,1,0,-1.02,-228,-69,121,0,0,-0.02
17132,-320,160,1,0,-1.02,-229,-72,130,-0.02,-0.05,0.12
17136,-330,64,1,0,-1.02,-236,-71,129,-0.12,-0.03,0.11
17092,-348,114,0.99,0,-1.02,-228,-61,117,0,0.12,-0.08
17208,-342,98,1,0,-1.02,-225,-68,121,0.05,0.02,-0.02
17234,-302,66,1,0,-1.02,-227,-71,115,0.02,-0.03,-0.11
17128,-290,190,1,0,-1.01,-231,-67,119,-0.05,0.03,-0.05
17200,-300,128,1,0,-1.02,-233,-68,125,-0.08,0.02,0.05
17164,-368,74,1,0,-1.02,-234,-67,130,-0.09,0.03,0.12
17140,-324,8,1,0,-1.02,-234,-75,127,-0.09,-0.09,0.08
17126,-316,178,1,0,-1.01,-224,-62,114,0.06,0.11,-0.12
17222,-334,18,1,0,-1.02,-232,-60,116,-0.06,0.14,-0.09
17140,-296,30,1,0,-1.02,-234,-67,125,-0.09,0.03,0.05
17180,-326,112,1,0,-1.02,-233,-64,131,-0.08,0.08,0.14
17076,-354,44,0.99,0,-1.02,-228,-77,125,0,-0.12,0.05
17090,-464,60,0.99,-0.01,-1.02,-230,-76,125,-0.03,-0.11,0.05
17160,-282,118,1,0,-1.02,-231,-77,112,-0.05,-0.12,-0.15
17126,-416,80,1,-0.01,-1.02,-231,-69,121,-0.05,0,-0.02
17156,-320,106,1,0,-1.02,-229,-70,129,-0.02,-0.02,0.11
17172,-400,40,1,0,-1.02,-223,-71,119,0.08,-0.03,-0.05
17222,-414,56,1,-0.01,-1.02,-221,-66,121,0.11,0.05,-0.02
17132,-390,106,1,0,-1.02,-226,-66,124,0.03,0.05,0.03
17130,-388,172,1,0,-1.01,-226,-76,122,0.03,-0.11,0
17196,-256,90,1,0,-1.02,-224,-71,124,0.06,-0.03,0.03
17284,-336,58,1.01,0,-1.02,-223,-67,122,0.08,0.03,0
17106,-362,88,0.99,0,-1.02,-232,-57,125,-0.06,0.18,0.05
17172,-356,130,1,0,-1.02,-226,-54,118,0.03,0.23,-0.06
17168,-414,102,1,-0.01,-1.02,-224,-76,125,0.06,-0.11,0.05
17152,-370,42,1,0,-1.02,-222,-65,123,0.09,0.06,0.02
17158,-364,-8,1,0,-1.03,-235,-68,127,-0.11,0.02,0.08
17142,-384,180,1,0,-1.01,-235,-70,122,-0.11,-0.02,0
17208,-332,136,1,0,-1.02,-228,-73,124,0,-0.06,0.03
17176,-364,118,1,0,-1.02,-230,-72,116,-0.03,-0.05,-0.09
17164,-384,190,1,0,-1.01,-234,-81,119,-0.09,-0.18,-0.05
17204,-406,146,1,0,-1.02,-227,-77,120,0.02,-0.12,-0.03
17058,-260,92,0.99,0,-1.02,-230,-71,125,-0.03,-0.03,0.05
17170,-324,84,1,0,-1.02,-232,-65,134,-0.06,0.06,0.18
17124,-366,178,1,0,-1.01,-238,-76,114,-0.15,-0.11,-0.12
17126,-384,54,1,0,-1.02,-228,-67,123,0,0.03,0.02
17106,-328,90,0.99,0,-1.02,-226,-65,121,0.03,0.06,-0.02
17170,-342,-80,1,0,-1.03,-226,-78,132,0.03,-0.14,0.15
17150,-438,122,1,-0.01,-1.02,-233,-73,118,-0.08,-0.06,-0.06
17134,-322,86,1,0,-1.02,-230,-66,131,-0.03,0.05,0.14
17110,-414,144,0.99,-0.01,-1.02,-220,-63,127,0.12,0.09,0.08
17152,-300,72,1,0,-1.02,-232,-80,127,-0.06,-0.17,0.08
17088,-344,112,0.99,0,-1.02,-229,-66,114,-0.02,0.05,-0.12
17118,-320,158,0.99,0,-1.02,-239,-70,124,-0.17,-0.02,0.03
17190,-268,110,1,0,-1.02,-230,-63,126,-0.03,0.09,0.06
17142,-424,-6,1,-0.01,-1.03,-223,-72,116,0.08,-0.05,-0.09
17130,-324,52,1,0,-1.02,-221,-65,122,0.11,0.06,0
17132,-382,184,1,0,-1.01,-221,-68,115,0.11,0.02,-0.11
17186,-318,104,1,0,-1.02,-226,-71,118,0.03,-0.03,-0.06
17134,-292,24,1,0,-1.02,-223,-66,127,0.08,0.05,0.08
17220,-346,70,1,0,-1.02,-230,-60,132,-0.03,0.14,0.15
17168,-370,44,1,0,-1.02,-231,-74,119,-0.05,-0.08,-0.05
17160,-400,152,1,0,-1.02,-221,-71,122,0.11,-0.03,0
17138,-326,54,1,0,-1.02,-234,-73,120,-0.09,-0.06,-0.03
17260,-312,156,1,0,-1.02,-229,-64,128,-0.02,0.08,0.09
17112,-334,106,0.99,0,-1.02,-235,-67,129,-0.11,0.03,0.11
17144,-370,116,1,0,-1.02,-222,-71,127,0.09,-0.03,0.08
17136,-370,118,1,0,-1.02,-227,-67,121,0.02,0.03,-0.02
17206,-352,-60,1,0,-1.03,-231,-69,118,-0.05,0,-0.06
17182,-370,96,1,0,-1.02,-229,-61,123,-0.02,0.12,0.02
17166,-414,120,1,-0.01,-1.02,-228,-69,125,0,0,0.05
17114,-410,58,0.99,-0.01,-1.02,-231,-73,117,-0.05,-0.06,-0.08
17158,-324,170,1,0,-1.01,-218,-67,122,0.15,0.03,0
17238,-430,44,1,-0.01,-1.02,-228,-67,119,0,0.03,-0.05
17232,-306,288,1,0,-1.01,-226,-62,126,0.03,0.11,0.06
17180,-372,120,1,0,-1.02,-231,-59,121,-0.05,0.15,-0.02
17170,-364,94,1,0,-1.02,-225,-69,120,0.05,0,-0.03
17202,-344,-8,1,0,-1.03,-221,-58,126,0.11,0.17,0.06
17110,-394,184,0.99,0,-1.01,-221,-66,115,0.11,0.05,-0.11
17204,-302,174,1,0,-1.01,-218,-66,120,0.15,0.05,-0.03
17130,-454,98,1,-0.01,-1.02,-228,-68,128,0,0.02,0.09
17130,-288,76,1,0,-1.02,-226,-69,127,0.03,0,0.08
17154,-308,32,1,0,-1.02,-237,-69,126,-0.14,0,0.06
17184,-414,134,1,-0.01,-1.02,-224,-58,133,0.06,0.17,0.17
17204,-380,46,1,0,-1.02,-228,-69,123,0,0,0.02
17088,-326,172,0.99,0,-1.01,-227,-72,116,0.02,-0.05,-0.09
17112,-466,164,0.99,-0.01,-1.01,-228,-72,118,0,-0.05,-0.06
17206,-396,146,1,0,-1.02,-222,-67,116,0.09,0.03,-0.09
17176,-300,58,1,0,-1.02,-228,-74,126,0,-0.08,0.06
17134,-442,22,1,-0.01,-1.02,-236,-73,114,-0.12,-0.06,-0.12
17134,-396,-36,1,0,-1.03,-233,-66,124,-0.08,0.05,0.03
17182,-458,74,1,-0.01,-1.02,-230,-68,120,-0.03,0.02,-0.03
17210,-274,60,1,0,-1.02,-219,-65,119,0.14,0.06,-0.05
17166,-404,150,1,0,-1.02,-230,-70,119,-0.03,-0.02,-0.05
17124,-320,4,1,0,-1.02,-231,-62,121,-0.05,0.11,-0.02
17198,-370,68,1,0,-1.02,-230,-63,124,-0.03,0.09,0.03
17072,-306,140,0.99,0,-1.02,-226,-66,126,0.03,0.05,0.06
17222,-334,138,1,0,-1.02,-225,-67,122,0.05,0.03,0
17198,-342,148,1,0,-1.02,-221,-67,116,0.11,0.03,-0.09
17202,-404,-28,1,0,-1.03,-236,-76,123,-0.12,-0.11,0.02
17178,-356,134,1,0,-1.02,-236,-60,119,-0.12,0.14,-0.05
17104,-326,106,0.99,0,-1.02,-226,-66,120,0.03,0.05,-0.03
17188,-382,208,1,0,-1.01,-229,-83,127,-0.02,-0.21,0.08
17168,-306,-22,1,0,-1.03,-225,-70,117,0.05,-0.02,-0.08
17178,-336,102,1,0,-1.02,-238,-75,113,-0.15,-0.09,-0.14
17166,-316,-40,1,0,-1.03,-229,-85,121,-0.02,-0.24,-0.02
17158,-352,160,1,0,-1.02,-231,-67,125,-0.05,0.03,0.05
17182,-334,-26,1,0,-1.03,-231,-63,122,-0.05,0.09,0
17162,-280,94,1,0,-1.02,-229,-61,119,-0.02,0.12,-0.05
17154,-324,218,1,0,-1.01,-222,-66,112,0.09,0.05,-0.15
17152,-298,84,1,0,-1.02,-224,-71,133,0.06,-0.03,0.17
17162,-388,118,1,0,-1.02,-232,-64,127,-0.06,0.08,0.08
17110,-386,-40,0.99,0,-1.03,-223,-72,125,0.08,-0.05,0.05
17184,-368,88,1,0,-1.02,-228,-72,118,0,-0.05,-0.06
17182,-446,104,1,-0.01,-1.02,-230,-79,128,-0.03,-0.15,0.09
17178,-300,140,1,0,-1.02,-233,-68,123,-0.08,0.02,0.02
17160,-354,66,1,0,-1.02,-232,-74,129,-0.06,-0.08,0.11
17186,-324,22,1,0,-1.02,-221,-73,113,0.11,-0.06,-0.14
17178,-394,66,1,0,-1.02,-227,-73,128,0.02,-0.06,0.09
17116,-306,94,0.99,0,-1.02,-227,-61,124,0.02,0.12,0.03
17186,-356,220,1,0,-1.01,-233,-67,114,-0.08,0.03,-0.12
17214,-382,12,1,0,-1.02,-232,-73,118,-0.06,-0.06,-0.06
17140,-400,154,1,0,-1.02,-229,-66,112,-0.02,0.05,-0.15
17238,-370,66,1,0,-1.02,-239,-76,119,-0.17,-0.11,-0.05
17180,-428,234,1,-0.01,-1.01,-229,-70,123,-0.02,-0.02,0.02
17134,-384,80,1,0,-1.02,-231,-74,126,-0.05,-0.08,0.06
17130,-320,98,1,0,-1.02,-228,-62,119,0,0.11,-0.05
17222,-358,186,1,0,-1.01,-235,-71,115,-0.11,-0.03,-0.11
17166,-354,28,1,0,-1.02,-222,-65,124,0.09,0.06,0.03
17216,-428,150,1,-0.01,-1.02,-223,-62,127,0.08,0.11,0.08
17184,-288,184,1,0,-1.01,-240,-66,119,-0.18,0.05,-0.05
17180,-430,126,1,-0.01,-1.02,-231,-62,119,-0.05,0.11,-0.05
17102,-368,158,0.99,0,-1.02,-236,-54,123,-0.12,0.23,0.02
17066,-340,112,0.99,0,-1.02,-229,-69,120,-0.02,0,-0.03
17164,-356,76,1,0,-1.02,-222,-73,122,0.09,-0.06,0
17166,-414,194,1,-0.01,-1.01,-233,-63,117,-0.08,0.09,-0.08
17146,-256,96,1,0,-1.02,-231,-65,128,-0.05,0.06,0.09
17118,-348,130,0.99,0,-1.02,-228,-69,124,0,0,0.03
17146,-372,76,1,0,-1.02,-229,-74,131,-0.02,-0.08,0.14
17160,-394,-12,1,0,-1.03,-224,-62,121,0.06,0.11,-0.02
17190,-372,26,1,0,-1.02,-225,-74,122,0.05,-0.08,0
17224,-376,64,1,0,-1.02,-230,-75,117,-0.03,-0.09,-0.08
17166,-358,48,1,0,-1.02,-227,-68,118,0.02,0.02,-0.06
17154,-356,182,1,0,-1.01,-225,-68,114,0.05,0.02,-0.12
17140,-352,30,1,0,-1.02,-224,-75,124,0.06,-0.09,0.03
17128,-342,82,1,0,-1.02,-238,-77,124,-0.15,-0.12,0.03
17232,-340,66,1,0,-1.02,-230,-68,129,-0.03,0.02,0.11
17214,-374,120,1,0,-1.02,-235,-68,118,-0.11,0.02,-0.06
17142,-418,16,1,-0.01,-1.02,-230,-67,117,-0.03,0.03,-0.08
17186,-458,16,1,-0.01,-1.02,-231,-68,122,-0.05,0.02,0
17112,-326,6,0.99,0,-1.02,-231,-62,125,-0.05,0.11,0.05
17090,-296,102,0.99,0,-1.02,-220,-77,121,0.12,-0.12,-0.02
17202,-348,134,1,0,-1.02,-226,-71,124,0.03,-0.03,0.03
17110,-382,68,0.99,0,-1.02,-223,-67,125,0.08,0.03,0.05
17160,-332,56,1,0,-1.02,-224,-78,121,0.06,-0.14,-0.02
17100,-406,-54,0.99,0,-1.03,-233,-68,118,-0.08,0.02,-0.06
17168,-312,118,1,0,-1.02,-224,-77,126,0.06,-0.12,0.06
17172,-312,10,1,0,-1.02,-225,-66,125,0.05,0.05,0.05
17154,-364,108,1,0,-1.02,-226,-59,120,0.03,0.15,-0.03
17164,-294,36,1,0,-1.02,-219,-74,124,0.14,-0.08,0.03
17226,-368,72,1,0,-1.02,-234,-66,124,-0.09,0.05,0.03
17172,-330,60,1,0,-1.02,-231,-68,126,-0.05,0.02,0.06
17212,-344,-16,1,0,-1.03,-232,-69,115,-0.06,0,-0.11
17112,-346,72,0.99,0,-1.02,-235,-73,124,-0.11,-0.06,0.03
17152,-362,148,1,0,-1.02,-226,-71,125,0.03,-0.03,0.05
17166,-336,36,1,0,-1.02,-228,-77,121,0,-0.12,-0.02
17116,-290,156,0.99,0,-1.02,-231,-62,127,-0.05,0.11,0.08
17166,-358,72,1,0,-1.02,-228,-68,113,0,0.02,-0.14
17144,-318,132,1,0,-1.02,-232,-74,122,-0.06,-0.08,0
17096,-404,46,0.99,0,-1.02,-219,-67,125,0.14,0.03,0.05
17186,-354,-58,1,0,-1.03,-224,-66,123,0.06,0.05,0.02
17096,-334,90,0.99,0,-1.02,-224,-65,121,0.06,0.06,-0.02
17078,-268,104,0.99,0,-1.02,-219,-70,126,0.14,-0.02,0.06
17144,-352,24,1,0,-1.02,-235,-65,121,-0.11,0.06,-0.02
17162,-334,-30,1,0,-1.03,-232,-65,112,-0.06,0.06,-0.15
17072,-352,56,0.99,0,-1.02,-227,-67,120,0.02,0.03,-0.03
17168,-316,-20,1,0,-1.03,-228,-73,122,0,-0.06,0
17110,-340,26,0.99,0,-1.02,-226,-64,117,0.03,0.08,-0.08
17134,-324,160,1,0,-1.02,-226,-68,127,0.03,0.02,0.08
17180,-320,10,1,0,-1.02,-224,-67,123,0.06,0.03,0.02
17222,-344,152,1,0,-1.02,-233,-64,115,-0.08,0.08,-0.11
17166,-420,42,1,-0.01,-1.02,-226,-66,125,0.03,0.05,0.05
17156,-346,-12,1,0,-1.03,-224,-73,122,0.06,-0.06,0
17198,-374,112,1,0,-1.02,-224,-66,131,0.06,0.05,0.14
17174,-302,74,1,0,-1.02,-240,-70,118,-0.18,-0.02,-0.06
17104,-334,66,0.99,0,-1.02,-233,-69,122,-0.08,0,0
17176,-400,190,1,0,-1.01,-224,-72,116,0.06,-0.05,-0.09
17148,-336,88,1,0,-1.02,-232,-74,115,-0.06,-0.08,-0.11
17128,-324,22,1,0,-1.02,-234,-77,120,-0.09,-0.12,-0.03
17158,-376,222,1,0,-1.01,-226,-77,118,0.03,-0.12,-0.06
17114,-382,122,0.99,0,-1.02,-228,-65,119,0,0.06,-0.05
17208,-354,68,1,0,-1.02,-233,-72,123,-0.08,-0.05,0.02
17102,-330,28,0.99,0,-1.02,-222,-76,124,0.09,-0.11,0.03
17256,-318,54,1,0,-1.02,-233,-73,122,-0.08,-0.06,0
17168,-400,218,1,0,-1.01,-231,-78,114,-0.05,-0.14,-0.12
17230,-358,28,1,0,-1.02,-231,-76,123,-0.05,-0.11,0.02
17168,-368,76,1,0,-1.02,-223,-74,125,0.08,-0.08,0.05
17176,-364,-24,1,0,-1.03,-232,-63,124,-0.06,0.09,0.03
17170,-334,92,1,0,-1.02,-228,-71,125,0,-0.03,0.05
17152,-362,88,1,0,-1.02,-226,-65,118,0.03,0.06,-0.06
17204,-410,136,1,-0.01,-1.02,-235,-61,123,-0.11,0.12,0.02
17218,-330,-56,1,0,-1.03,-231,-74,118,-0.05,-0.08,-0.06
17112,-346,124,0.99,0,-1.02,-230,-67,120,-0.03,0.03,-0.03
17180,-348,124,1,0,-1.02,-225,-66,116,0.05,0.05,-0.09
17230,-330,104,1,0,-1.02,-234,-68,123,-0.09,0.02,0.02
17132,-376,102,1,0,-1.02,-223,-67,119,0.08,0.03,-0.05
17156,-320,-62,1,0,-1.03,-233,-62,123,-0.08,0.11,0.02
17194,-384,24,1,0,-1.02,-233,-79,125,-0.08,-0.15,0.05
17150,-340,168,1,0,-1.01,-236,-67,125,-0.12,0.03,0.05
17180,-322,22,1,0,-1.02,-224,-79,127,0.06,-0.15,0.08
17172,-358,128,1,0,-1.02,-224,-65,104,0.06,0.06,-0.27
17160,-352,200,1,0,-1.01,-221,-75,124,0.11,-0.09,0.03
17182,-276,108,1,0,-1.02,-234,-77,111,-0.09,-0.12,-0.17
17148,-418,200,1,-0.01,-1.01,-232,-79,121,-0.06,-0.15,-0.02
17144,-374,82,1,0,-1.02,-230,-73,128,-0.03,-0.06,0.09
17124,-372,110,1,0,-1.02,-231,-76,130,-0.05,-0.11,0.12
17108,-402,148,0.99,0,-1.02,-230,-62,126,-0.03,0.11,0.06
17102,-358,120,0.99,0,-1.02,-210,-72,119,0.27,-0.05,-0.05
17118,-386,110,0.99,0,-1.02,-234,-70,127,-0.09,-0.02,0.08
17202,-236,80,1,0.01,-1.02,-224,-68,125,0.06,0.02,0.05
17160,-366,240,1,0,-1.01,-225,-60,120,0.05,0.14,-0.03
17142,-302,106,1,0,-1.02,-234,-70,129,-0.09,-0.02,0.11
17124,-338,220,1,0,-1.01,-226,-65,125,0.03,0.06,0.05
17116,-358,114,0.99,0,-1.02,-221,-84,126,0.11,-0.23,0.06
17150,-344,94,1,0,-1.02,-228,-64,123,0,0.08,0.02
17260,-308,136,1,0,-1.02,-227,-71,127,0.02,-0.03,0.08
17206,-422,152,1,-0.01,-1.02,-223,-73,124,0.08,-0.06,0.03
17220,-248,64,1,0,-1.02,-227,-71,121,0.02,-0.03,-0.02
17176,-318,36,1,0,-1.02,-232,-68,127,-0.06,0.02,0.08
17166,-346,110,1,0,-1.02,-234,-68,125,-0.09,0.02,0.05
17114,-256,94,0.99,0,-1.02,-227,-67,122,0.02,0.03,0
17128,-332,22,1,0,-1.02,-228,-69,130,0,0,0.12
17132,-374,76,1,0,-1.02,-230,-60,129,-0.03,0.14,0.11
17150,-398,88,1,0,-1.02,-227,-71,125,0.02,-0.03,0.05
17182,-352,22,1,0,-1.02,-236,-64,115,-0.12,0.08,-0.11
17104,-334,8,0.99,0,-1.02,-243,-67,121,-0.23,0.03,-0.02
17174,-376,124,1,0,-1.02,-234,-80,132,-0.09,-0.17,0.15
17184,-330,214,1,0,-1.01,-230,-59,117,-0.03,0.15,-0.08
17150,-378,148,1,0,-1.02,-237,-59,128,-0.14,0.15,0.09
17068,-338,62,0.99,0,-1.02,-231,-69,120,-0.05,0,-0.03
17132,-398,116,1,0,-1.02,-223,-76,122,0.08,-0.11,0
17094,-250,148,0.99,0,-1.02,-235,-58,121,-0.11,0.17,-0.02
17192,-298,72,1,0,-1.02,-229,-77,128,-0.02,-0.12,0.09
17172,-386,6,1,0,-1.02,-231,-69,118,-0.05,0,-0.06
17158,-374,94,1,0,-1.02,-228,-81,124,0,-0.18,0.03
17142,-354,114,1,0,-1.02,-236,-69,123,-0.12,0,0.02
17198,-282,80,1,0,-1.02,-232,-71,124,-0.06,-0.03,0.03
17134,-302,40,1,0,-1.02,-231,-70,123,-0.05,-0.02,0.02
17164,-406,106,1,0,-1.02,-226,-81,118,0.03,-0.18,-0.06
17140,-268,148,1,0,-1.02,-224,-71,124,0.06,-0.03,0.03
17086,-398,286,0.99,0,-1.01,-230,-77,125,-0.03,-0.12,0.05
17168,-334,228,1,0,-1.01,-236,-79,119,-0.12,-0.15,-0.05
17192,-398,178,1,0,-1.01,-223,-74,125,0.08,-0.08,0.05
17190,-286,126,1,0,-1.02,-231,-73,123,-0.05,-0.06,0.02
17186,-290,40,1,0,-1.02,-226,-62,122,0.03,0.11,0
17202,-442,144,1,-0.01,-1.02,-225,-65,123,0.05,0.06,0.02
17174,-298,166,1,0,-1.01,-230,-62,126,-0.03,0.11,0.06
17194,-386,56,1,0,-1.02,-218,-74,118,0.15,-0.08,-0.06
17156,-314,110,1,0,-1.02,-226,-69,123,0.03,0,0.02
17246,-436,2,1,-0.01,-1.02,-223,-69,118,0.08,0,-0.06
17048,-320,136,0.99,0,-1.02,-235,-68,123,-0.11,0.02,0.02
17128,-382,-46,1,0,-1.03,-228,-58,117,0,0.17,-0.08
17148,-396,110,1,0,-1.02,-230,-73,121,-0.03,-0.06,-0.02
17166,-412,242,1,-0.01,-1.01,-231,-74,121,-0.05,-0.08,-0.02
17184,-348,120,1,0,-1.02,-226,-67,116,0.03,0.03,-0.09
17154,-296,116,1,0,-1.02,-225,-64,128,0.05,0.08,0.09
17172,-394,58,1,0,-1.02,-226,-78,120,0.03,-0.14,-0.03
17118,-290,10,0.99,0,-1.02,-230,-65,119,-0.03,0.06,-0.05
17196,-410,100,1,-0.01,-1.02,-220,-68,120,0.12,0.02,-0.03
17144,-318,122,1,0,-1.02,-220,-74,130,0.12,-0.08,0.12
17074,-392,206,0.99,0,-1.01,-229,-62,128,-0.02,0.11,0.09
17062,-380,142,0.99,0,-1.02,-231,-73,121,-0.05,-0.06,-0.02
17166,-362,58,1,0,-1.02,-226,-68,120,0.03,0.02,-0.03
17144,-352,102,1,0,-1.02,-230,-71,123,-0.03,-0.03,0.02
17168,-388,108,1,0,-1.02,-234,-62,115,-0.09,0.11,-0.11
17130,-352,18,1,0,-1.02,-234,-62,124,-0.09,0.11,0.03
17148,-384,110,1,0,-1.02,-230,-58,121,-0.03,0.17,-0.02
17098,-330,96,0.99,0,-1.02,-223,-73,124,0.08,-0.06,0.03
17114,-412,152,0.99,-0.01,-1.02,-233,-71,123,-0.08,-0.03,0.02
17138,-360,42,1,0,-1.02,-229,-63,120,-0.02,0.09,-0.03
17122,-408,150,1,0,-1.02,-219,-72,126,0.14,-0.05,0.06
17166,-382,196,1,0,-1.01,-227,-74,128,0.02,-0.08,0.09
17124,-344,26,1,0,-1.02,-232,-72,124,-0.06,-0.05,0.03
17158,-296,-10,1,0,-1.03,-237,-76,123,-0.14,-0.11,0.02
17214,-416,124,1,-0.01,-1.02,-235,-81,130,-0.11,-0.18,0.12
17102,-446,108,0.99,-0.01,-1.02,-240,-66,118,-0.18,0.05,-0.06
17100,-366,14,0.99,0,-1.02,-226,-64,127,0.03,0.08,0.08
17156,-328,158,1,0,-1.02,-228,-74,125,0,-0.08,0.05
17176,-394,34,1,0,-1.02,-230,-70,121,-0.03,-0.02,-0.02
17112,-418,54,0.99,-0.01,-1.02,-230,-71,120,-0.03,-0.03,-0.03
17128,-382,112,1,0,-1.02,-235,-70,117,-0.11,-0.02,-0.08
17104,-406,88,0.99,0,-1.02,-219,-69,129,0.14,0,0.11
17234,-404,34,1,0,-1.02,-229,-68,129,-0.02,0.02,0.11
17192,-346,44,1,0,-1.02,-235,-70,117,-0.11,-0.02,-0.08
17180,-270,116,1,0,-1.02,-237,-68,116,-0.14,0.02,-0.09
17154,-370,46,1,0,-1.02,-221,-69,124,0.11,0,0.03
17166,-306,144,1,0,-1.02,-226,-58,120,0.03,0.17,-0.03
17142,-292,78,1,0,-1.02,-233,-74,114,-0.08,-0.08,-0.12
17176,-342,-14,1,0,-1.03,-219,-71,122,0.14,-0.03,0
17142,-408,180,1,0,-1.01,-227,-67,118,0.02,0.03,-0.06
17252,-348,40,1,0,-1.02,-216,-69,124,0.18,0,0.03
17172,-412,84,1,-0.01,-1.02,-225,-69,118,0.05,0,-0.06
17234,-324,124,1,0,-1.02,-231,-77,122,-0.05,-0.12,0
17134,-432,-22,1,-0.01,-1.03,-233,-60,123,-0.08,0.14,0.02
17142,-378,130,1,0,-1.02,-230,-73,121,-0.03,-0.06,-0.02
17158,-292,172,1,0,-1.01,-234,-80,120,-0.09,-0.17,-0.03
17118,-364,20,0.99,0,-1.02,-228,-67,121,0,0.03,-0.02
17134,-394,160,1,0,-1.02,-220,-69,125,0.12,0,0.05
17206,-338,130,1,0,-1.02,-232,-69,129,-0.06,0,0.11
17032,-338,58,0.99,0,-1.02,-229,-60,120,-0.02,0.14,-0.03
17236,-396,140,1,0,-1.02,-225,-75,120,0.05,-0.09,-0.03
17172,-318,192,1,0,-1.01,-228,-73,119,0,-0.06,-0.05
17072,-394,228,0.99,0,-1.01,-232,-70,125,-0.06,-0.02,0.05
17122,-330,74,1,0,-1.02,-221,-59,123,0.11,0.15,0.02
17134,-316,160,1,0,-1.02,-226,-63,127,0.03,0.09,0.08
17196,-314,210,1,0,-1.01,-230,-70,124,-0.03,-0.02,0.03
17080,-336,54,0.99,0,-1.02,-232,-59,127,-0.06,0.15,0.08
17204,-292,126,1,0,-1.02,-237,-62,118,-0.14,0.11,-0.06
17202,-334,8,1,0,-1.02,-235,-74,126,-0.11,-0.08,0.06
17106,-382,206,0.99,0,-1.01,-224,-84,110,0.06,-0.23,-0.18
17160,-442,144,1,-0.01,-1.02,-230,-64,134,-0.03,0.08,0.18
17190,-302,232,1,0,-1.01,-231,-66,118,-0.05,0.05,-0.06
17208,-320,140,1,0,-1.02,-227,-66,128,0.02,0.05,0.09
17134,-362,64,1,0,-1.02,-226,-68,121,0.03,0.02,-0.02
17132,-392,36,1,0,-1.02,-224,-71,117,0.06,-0.03,-0.08
17204,-356,122,1,0,-1.02,-236,-65,133,-0.12,0.06,0.17
17194,-386,104,1,0,-1.02,-231,-63,123,-0.05,0.09,0.02
17100,-356,188,0.99,0,-1.01,-232,-66,134,-0.06,0.05,0.18
17068,-388,62,0.99,0,-1.02,-226,-68,126,0.03,0.02,0.06
17240,-426,56,1,-0.01,-1.02,-228,-76,115,0,-0.11,-0.11
17110,-320,28,0.99,0,-1.02,-231,-67,116,-0.05,0.03,-0.09
17152,-380,58,1,0,-1.02,-223,-65,119,0.08,0.06,-0.05
17154,-348,192,1,0,-1.01,-233,-61,115,-0.08,0.12,-0.11
17140,-330,108,1,0,-1.02,-227,-87,126,0.02,-0.27,0.06
17104,-420,58,0.99,-0.01,-1.02,-226,-61,124,0.03,0.12,0.03
17190,-360,194,1,0,-1.01,-230,-65,117,-0.03,0.06,-0.08
17200,-324,122,1,0,-1.02,-221,-65,122,0.11,0.06,0
17166,-376,24,1,0,-1.02,-225,-78,108,0.05,-0.14,-0.21
17190,-304,76,1,0,-1.02,-235,-72,119,-0.11,-0.05,-0.05
17074,-330,74,0.99,0,-1.02,-236,-68,118,-0.12,0.02,-0.06
17164,-294,112,1,0,-1.02,-236,-78,126,-0.12,-0.14,0.06
17132,-380,176,1,0,-1.01,-237,-68,127,-0.14,0.02,0.08
17108,-406,108,0.99,0,-1.02,-230,-69,118,-0.03,0,-0.06
17132,-368,90,1,0,-1.02,-227,-73,118,0.02,-0.06,-0.06
17118,-280,56,0.99,0,-1.02,-224,-65,127,0.06,0.06,0.08
17160,-334,42,1,0,-1.02,-228,-70,124,0,-0.02,0.03
17130,-348,0,1,0,-1.03,-234,-74,128,-0.09,-0.08,0.09
17114,-424,52,0.99,-0.01,-1.02,-238,-67,126,-0.15,0.03,0.06
17178,-372,118,1,0,-1.02,-224,-77,122,0.06,-0.12,0
17154,-354,164,1,0,-1.01,-236,-70,126,-0.12,-0.02,0.06
17098,-280,6,0.99,0,-1.02,-223,-66,122,0.08,0.05,0
17276,-348,70,1,0,-1.02,-228,-80,126,0,-0.17,0.06
17190,-418,126,1,-0.01,-1.02,-225,-63,127,0.05,0.09,0.08
17106,-382,22,0.99,0,-1.02,-220,-78,120,0.12,-0.14,-0.03
17178,-328,98,1,0,-1.02,-237,-73,116,-0.14,-0.06,-0.09
17184,-376,12,1,0,-1.02,-226,-59,122,0.03,0.15,0
17140,-338,136,1,0,-1.02,-234,-70,124,-0.09,-0.02,0.03
17126,-328,126,1,0,-1.02,-223,-71,126,0.08,-0.03,0.06
17192,-378,92,1,0,-1.02,-232,-67,124,-0.06,0.03,0.03
17106,-344,136,0.99,0,-1.02,-227,-71,123,0.02,-0.03,0.02
17198,-332,88,1,0,-1.02,-234,-75,120,-0.09,-0.09,-0.03
17094,-376,106,0.99,0,-1.02,-226,-71,116,0.03,-0.03,-0.09
17180,-374,90,1,0,-1.02,-230,-76,128,-0.03,-0.11,0.09
17178,-366,218,1,0,-1.01,-225,-58,124,0.05,0.17,0.03
17184,-368,138,1,0,-1.02,-230,-64,124,-0.03,0.08,0.03
17180,-316,-32,1,0,-1.03,-222,-65,128,0.09,0.06,0.09
17146,-364,192,1,0,-1.01,-230,-70,124,-0.03,-0.02,0.03
17186,-412,114,1,-0.01,-1.02,-237,-67,129,-0.14,0.03,0.11
17144,-382,136,1,0,-1.02,-225,-74,128,0.05,-0.08,0.09
17192,-384,118,1,0,-1.02,-229,-72,120,-0.02,-0.05,-0.03
17168,-280,86,1,0,-1.02,-225,-68,123,0.05,0.02,0.02
17204,-396,168,1,0,-1.01,-229,-81,126,-0.02,-0.18,0.06
17154,-416,56,1,-0.01,-1.02,-234,-67,128,-0.09,0.03,0.09
17168,-408,124,1,0,-1.02,-231,-70,121,-0.05,-0.02,-0.02
17184,-400,94,1,0,-1.02,-238,-80,123,-0.15,-0.17,0.02
17086,-294,134,0.99,0,-1.02,-230,-62,115,-0.03,0.11,-0.11
17146,-358,46,1,0,-1.02,-224,-69,114,0.06,0,-0.12
17198,-410,134,1,-0.01,-1.02,-231,-70,114,-0.05,-0.02,-0.12
17118,-430,74,0.99,-0.01,-1.02,-232,-74,123,-0.06,-0.08,0.02
17152,-334,38,1,0,-1.02,-228,-75,129,0,-0.09,0.11
17140,-384,206,1,0,-1.01,-233,-62,112,-0.08,0.11,-0.15
17142,-322,4,1,0,-1.02,-225,-69,133,0.05,0,0.17
17246,-346,90,1,0,-1.02,-221,-73,122,0.11,-0.06,0
17148,-414,18,1,-0.01,-1.02,-239,-66,114,-0.17,0.05,-0.12
17054,-344,200,0.99,0,-1.01,-235,-64,122,-0.11,0.08,0
17130,-372,150,1,0,-1.02,-231,-67,128,-0.05,0.03,0.09
17148,-458,8,1,-0.01,-1.02,-228,-68,118,0,0.02,-0.06
17186,-324,90,1,0,-1.02,-237,-62,123,-0.14,0.11,0.02
17164,-400,98,1,0,-1.02,-223,-65,126,0.08,0.06,0.06
17148,-402,18,1,0,-1.02,-225,-70,118,0.05,-0.02,-0.06
17172,-332,64,1,0,-1.02,-224,-72,132,0.06,-0.05,0.15
17150,-468,14,1,-0.01,-1.02,-229,-66,126,-0.02,0.05,0.06
17050,-440,92,0.99,-0.01,-1.02,-232,-71,126,-0.06,-0.03,0.06
17124,-324,144,1,0,-1.02,-226,-67,117,0.03,0.03,-0.08
17204,-392,-22,1,0,-1.03,-220,-73,123,0.12,-0.06,0.02
17174,-328,136,1,0,-1.02,-232,-66,122,-0.06,0.05,0
17122,-370,80,1,0,-1.02,-226,-70,125,0.03,-0.02,0.05
17166,-322,-46,1,0,-1.03,-226,-67,119,0.03,0.03,-0.05
17156,-364,90,1,0,-1.02,-227,-75,124,0.02,-0.09,0.03
17130,-368,108,1,0,-1.02,-225,-79,116,0.05,-0.15,-0.09
17172,-366,148,1,0,-1.02,-237,-70,126,-0.14,-0.02,0.06
17198,-444,-40,1,-0.01,-1.03,-233,-67,117,-0.08,0.03,-0.08
17072,-358,146,0.99,0,-1.02,-225,-68,116,0.05,0.02,-0.09
17174,-330,-8,1,0,-1.03,-228,-73,122,0,-0.06,0
17134,-408,174,1,0,-1.01,-233,-64,130,-0.08,0.08,0.12
