accX,accY,accZ,accX_cal,accY_cal,accZ_cal,gyroX,gyroY,gyroZ,gyroX_cal,gyroY_cal,gyroZ_cal
1172,-16802,-206,0.02,-1.01,-1.04,-189,-64,143,0.6,0.08,0.32
1192,-16822,-286,0.02,-1.01,-1.04,-218,-72,124,0.15,-0.05,0.03
1094,-16816,-192,0.02,-1.01,-1.04,-239,-75,122,-0.17,-0.09,0
1186,-16760,-264,0.02,-1,-1.04,-256,-68,122,-0.43,0.02,0
1160,-16844,-172,0.02,-1.01,-1.04,-248,-64,114,-0.31,0.08,-0.12
1120,-16868,-46,0.02,-1.01,-1.03,-242,-65,115,-0.21,0.06,-0.11
1100,-16740,-238,0.02,-1,-1.04,-231,-62,113,-0.05,0.11,-0.14
1058,-16814,18,0.01,-1.01,-1.02,-227,-79,116,0.02,-0.15,-0.09
1136,-16780,-172,0.02,-1,-1.04,-223,-65,130,0.08,0.06,0.12
1050,-16792,-60,0.01,-1,-1.03,-222,-62,131,0.09,0.11,0.14
1122,-16846,-124,0.02,-1.01,-1.03,-221,-69,126,0.11,0,0.06
1172,-16780,-200,0.02,-1,-1.04,-222,-61,128,0.09,0.12,0.09
1098,-16894,-158,0.02,-1.01,-1.03,-241,-70,123,-0.2,-0.02,0.02
1016,-16830,-88,0.01,-1.01,-1.03,-250,-64,102,-0.34,0.08,-0.31
1002,-16796,-82,0.01,-1.01,-1.03,-231,-69,126,-0.05,0,0.06
1098,-16708,-62,0.02,-1,-1.03,-214,-72,132,0.21,-0.05,0.15
1010,-16874,-78,0.01,-1.01,-1.03,-199,-60,147,0.44,0.14,0.38
1126,-16846,-204,0.02,-1.01,-1.04,-204,-69,143,0.37,0,0.32
1072,-16866,-126,0.02,-1.01,-1.03,-209,-61,129,0.29,0.12,0.11
1146,-16898,-184,0.02,-1.01,-1.04,-226,-72,145,0.03,-0.05,0.35
1188,-16854,-210,0.02,-1.01,-1.04,-235,-73,131,-0.11,-0.06,0.14
1198,-16824,-150,0.02,-1.01,-1.03,-239,-81,121,-0.17,-0.18,-0.02
1100,-16786,-242,0.02,-1,-1.04,-246,-66,126,-0.27,0.05,0.06
1186,-16772,-98,0.02,-1,-1.03,-240,-70,120,-0.18,-0.02,-0.03
1094,-16820,-138,0.02,-1.01,-1.03,-235,-67,118,-0.11,0.03,-0.06
1192,-16794,-164,0.02,-1.01,-1.04,-239,-73,104,-0.17,-0.06,-0.27
1048,-16798,-252,0.01,-1.01,-1.04,-235,-73,115,-0.11,-0.06,-0.11
1132,-16782,-190,0.02,-1,-1.04,-245,-73,110,-0.26,-0.06,-0.18
1056,-16896,-216,0.01,-1.01,-1.04,-250,-69,110,-0.34,0,-0.18
1046,-16852,-54,0.01,-1.01,-1.03,-238,-71,118,-0.15,-0.03,-0.06
1076,-16780,-108,0.02,-1,-1.03,-249,-64,126,-0.32,0.08,0.06
1130,-16760,-136,0.02,-1,-1.03,-236,-68,121,-0.12,0.02,-0.02
1088,-16834,-218,0.02,-1.01,-1.04,-229,-74,131,-0.02,-0.08,0.14
1122,-16818,-102,0.02,-1.01,-1.03,-214,-58,131,0.21,0.17,0.14
1114,-16834,-184,0.02,-1.01,-1.04,-214,-78,136,0.21,-0.14,0.21
1022,-16732,-18,0.01,-1,-1.03,-219,-70,143,0.14,-0.02,0.32
1190,-16826,-204,0.02,-1.01,-1.04,-232,-58,131,-0.06,0.17,0.14
1016,-16810,-198,0.01,-1.01,-1.04,-237,-76,117,-0.14,-0.11,-0.08
1174,-16818,-108,0.02,-1.01,-1.03,-224,-71,132,0.06,-0.03,0.15
1164,-16820,-176,0.02,-1.01,-1.04,-236,-76,124,-0.12,-0.11,0.03
1248,-16786,-200,0.03,-1,-1.04,-246,-65,102,-0.27,0.06,-0.31
1138,-16848,-254,0.02,-1.01,-1.04,-251,-74,109,-0.35,-0.08,-0.2
1160,-16794,-196,0.02,-1.01,-1.04,-270,-68,98,-0.64,0.02,-0.37
1118,-16776,-102,0.02,-1,-1.03,-261,-66,104,-0.5,0.05,-0.27
1092,-16820,-82,0.02,-1.01,-1.03,-258,-70,104,-0.46,-0.02,-0.27
1058,-16830,6,0.01,-1.01,-1.02,-249,-71,105,-0.32,-0.03,-0.26
1048,-16858,-200,0.01,-1.01,-1.04,-232,-54,115,-0.06,0.23,-0.11
946,-16816,-64,0.01,-1.01,-1.03,-222,-74,133,0.09,-0.08,0.17
1042,-16824,4,0.01,-1.01,-1.02,-209,-65,131,0.29,0.06,0.14
1082,-16760,-68,0.02,-1,-1.03,-213,-63,141,0.23,0.09,0.29
1080,-16802,-268,0.02,-1.01,-1.04,-211,-70,125,0.26,-0.02,0.05
1228,-16818,-196,0.03,-1.01,-1.04,-208,-64,135,0.31,0.08,0.2
1154,-16862,-116,0.02,-1.01,-1.03,-220,-72,132,0.12,-0.05,0.15
1190,-16894,-306,0.02,-1.01,-1.04,-225,-74,125,0.05,-0.08,0.05
1048,-16872,-232,0.01,-1.01,-1.04,-228,-67,128,0,0.03,0.09
1114,-16782,-236,0.02,-1,-1.04,-231,-70,118,-0.05,-0.02,-0.06
1138,-16898,-192,0.02,-1.01,-1.04,-238,-68,122,-0.15,0.02,0
1216,-16830,-202,0.02,-1.01,-1.04,-241,-71,125,-0.2,-0.03,0.05
1122,-16770,-136,0.02,-1,-1.03,-232,-69,119,-0.06,0,-0.05
1168,-16772,-226,0.02,-1,-1.04,-241,-70,113,-0.2,-0.02,-0.14
1134,-16922,-248,0.02,-1.01,-1.04,-237,-66,128,-0.14,0.05,0.09
1060,-16858,-64,0.01,-1.01,-1.03,-228,-76,113,0,-0.11,-0.14
1052,-16848,-292,0.01,-1.01,-1.04,-222,-69,118,0.09,0,-0.06
1024,-16838,-72,0.01,-1.01,-1.03,-219,-62,122,0.14,0.11,0
1040,-16746,-234,0.01,-1,-1.04,-222,-71,128,0.09,-0.03,0.09
1016,-16932,-142,0.01,-1.01,-1.03,-231,-65,129,-0.05,0.06,0.11
1224,-16762,-150,0.02,-1,-1.03,-220,-63,125,0.12,0.09,0.05
1158,-16778,-226,0.02,-1,-1.04,-240,-72,117,-0.18,-0.05,-0.08
1108,-16800,-194,0.02,-1.01,-1.04,-239,-67,122,-0.17,0.03,0
1116,-16774,-210,0.02,-1,-1.04,-235,-71,111,-0.11,-0.03,-0.17
1056,-16850,-204,0.01,-1.01,-1.04,-225,-80,117,0.05,-0.17,-0.08
1034,-16838,-132,0.01,-1.01,-1.03,-237,-68,128,-0.14,0.02,0.09
1116,-16856,-44,0.02,-1.01,-1.03,-230,-77,126,-0.03,-0.12,0.06
1066,-16828,-112,0.02,-1.01,-1.03,-243,-70,121,-0.23,-0.02,-0.02
1096,-16796,-174,0.02,-1.01,-1.04,-232,-68,121,-0.06,0.02,-0.02
1118,-16758,-246,0.02,-1,-1.04,-240,-68,115,-0.18,0.02,-0.11
1090,-16784,-302,0.02,-1,-1.04,-222,-66,117,0.09,0.05,-0.08
1106,-16888,-208,0.02,-1.01,-1.04,-229,-69,123,-0.02,0,0.02
1064,-16868,-114,0.02,-1.01,-1.03,-214,-63,130,0.21,0.09,0.12
1074,-16778,-34,0.02,-1,-1.03,-221,-70,126,0.11,-0.02,0.06
1142,-16846,-216,0.02,-1.01,-1.04,-230,-74,128,-0.03,-0.08,0.09
1140,-16820,-190,0.02,-1.01,-1.04,-222,-69,124,0.09,0,0.03
1076,-16858,-48,0.02,-1.01,-1.03,-223,-71,130,0.08,-0.03,0.12
1136,-16780,-170,0.02,-1,-1.04,-225,-68,137,0.05,0.02,0.23
1164,-16844,-222,0.02,-1.01,-1.04,-217,-71,126,0.17,-0.03,0.06
1060,-16826,-126,0.01,-1.01,-1.03,-229,-70,125,-0.02,-0.02,0.05
1118,-16808,-168,0.02,-1.01,-1.04,-227,-62,127,0.02,0.11,0.08
1108,-16782,-210,0.02,-1,-1.04,-234,-85,119,-0.09,-0.24,-0.05
1138,-16852,-172,0.02,-1.01,-1.04,-225,-65,124,0.05,0.06,0.03
1066,-16824,-192,0.02,-1.01,-1.04,-232,-70,127,-0.06,-0.02,0.08
1158,-16808,-72,0.02,-1.01,-1.03,-234,-72,118,-0.09,-0.05,-0.06
1102,-16818,-90,0.02,-1.01,-1.03,-226,-72,123,0.03,-0.05,0.02
1084,-16798,-188,0.02,-1.01,-1.04,-231,-68,117,-0.05,0.02,-0.08
1152,-16900,-116,0.02,-1.01,-1.03,-230,-73,130,-0.03,-0.06,0.12
1134,-16902,-208,0.02,-1.01,-1.04,-220,-72,125,0.12,-0.05,0.05
1092,-16834,-158,0.02,-1.01,-1.03,-221,-66,132,0.11,0.05,0.15
1088,-16804,-124,0.02,-1.01,-1.03,-223,-63,127,0.08,0.09,0.08
1150,-16796,-222,0.02,-1.01,-1.04,-225,-76,129,0.05,-0.11,0.11
1102,-16838,-112,0.02,-1.01,-1.03,-230,-76,127,-0.03,-0.11,0.08
1172,-16782,-312,0.02,-1,-1.04,-235,-64,129,-0.11,0.08,0.11
1162,-16810,-160,0.02,-1.01,-1.03,-215,-61,113,0.2,0.12,-0.14
1182,-16724,-90,0.02,-1,-1.03,-230,-68,130,-0.03,0.02,0.12
1112,-16828,-208,0.02,-1.01,-1.04,-233,-74,123,-0.08,-0.08,0.02
1150,-16856,-158,0.02,-1.01,-1.03,-228,-72,115,0,-0.05,-0.11
1172,-16816,-122,0.02,-1.01,-1.03,-221,-71,120,0.11,-0.03,-0.03
1046,-16782,-132,0.01,-1,-1.03,-245,-66,114,-0.26,0.05,-0.12
1156,-16738,-202,0.02,-1,-1.04,-234,-69,121,-0.09,0,-0.02
1078,-16760,-266,0.02,-1,-1.04,-230,-74,125,-0.03,-0.08,0.05
1054,-16850,-48,0.01,-1.01,-1.03,-225,-71,130,0.05,-0.03,0.12
1186,-16742,-180,0.02,-1,-1.04,-231,-73,128,-0.05,-0.06,0.09
1052,-16858,-176,0.01,-1.01,-1.04,-234,-69,127,-0.09,0,0.08
1058,-16822,-86,0.01,-1.01,-1.03,-228,-68,123,0,0.02,0.02
1106,-16916,-130,0.02,-1.01,-1.03,-224,-69,119,0.06,0,-0.05
1104,-16788,-164,0.02,-1,-1.04,-235,-70,128,-0.11,-0.02,0.09
1108,-16814,-216,0.02,-1.01,-1.04,-225,-83,120,0.05,-0.21,-0.03
1034,-16844,-186,0.01,-1.01,-1.04,-221,-70,123,0.11,-0.02,0.02
1054,-16766,-112,0.01,-1,-1.03,-220,-77,126,0.12,-0.12,0.06
1172,-16766,-96,0.02,-1,-1.03,-205,-60,132,0.35,0.14,0.15
1126,-16792,-150,0.02,-1,-1.03,-205,-66,135,0.35,0.05,0.2
1146,-16776,-208,0.02,-1,-1.04,-216,-68,142,0.18,0.02,0.31
1152,-16858,-182,0.02,-1.01,-1.04,-217,-76,131,0.17,-0.11,0.14
1126,-16808,-218,0.02,-1.01,-1.04,-229,-66,127,-0.02,0.05,0.08
1114,-16840,-170,0.02,-1.01,-1.04,-229,-67,123,-0.02,0.03,0.02
1120,-16808,-186,0.02,-1.01,-1.04,-233,-73,123,-0.08,-0.06,0.02
1136,-16776,-154,0.02,-1,-1.03,-225,-66,114,0.05,0.05,-0.12
1158,-16862,-168,0.02,-1.01,-1.04,-232,-63,119,-0.06,0.09,-0.05
1072,-16864,-120,0.02,-1.01,-1.03,-227,-67,126,0.02,0.03,0.06
1098,-16788,-156,0.02,-1,-1.03,-223,-61,129,0.08,0.12,0.11
1056,-16792,-182,0.01,-1,-1.04,-220,-66,133,0.12,0.05,0.17
1080,-16774,-218,0.02,-1,-1.04,-227,-65,127,0.02,0.06,0.08
1166,-16810,-192,0.02,-1.01,-1.04,-220,-68,128,0.12,0.02,0.09
1090,-16914,-202,0.02,-1.01,-1.04,-223,-73,121,0.08,-0.06,-0.02
1076,-16830,-240,0.02,-1.01,-1.04,-229,-62,110,-0.02,0.11,-0.18
1082,-16720,-146,0.02,-1,-1.03,-255,-69,101,-0.41,0,-0.32
974,-16834,-102,0.01,-1.01,-1.03,-268,-67,107,-0.61,0.03,-0.23
994,-16814,-4,0.01,-1.01,-1.03,-255,-59,111,-0.41,0.15,-0.17
942,-16850,-12,0.01,-1.01,-1.03,-211,-61,136,0.26,0.12,0.21
1128,-16764,-132,0.02,-1,-1.03,-187,-70,148,0.63,-0.02,0.4
1036,-16772,-42,0.01,-1,-1.03,-194,-74,153,0.52,-0.08,0.47
1160,-16782,-170,0.02,-1,-1.04,-193,-71,142,0.53,-0.03,0.31
1168,-16764,-210,0.02,-1,-1.04,-204,-59,143,0.37,0.15,0.32
1204,-16840,-176,0.02,-1.01,-1.04,-208,-69,137,0.31,0,0.23
1192,-16876,-308,0.02,-1.01,-1.04,-222,-68,129,0.09,0.02,0.11
1166,-16722,-222,0.02,-1,-1.04,-236,-72,126,-0.12,-0.05,0.06
1094,-16856,-212,0.02,-1.01,-1.04,-231,-64,112,-0.05,0.08,-0.15
1168,-16812,-274,0.02,-1.01,-1.04,-238,-77,111,-0.15,-0.12,-0.17
1140,-16876,-48,0.02,-1.01,-1.03,-232,-66,119,-0.06,0.05,-0.05
1142,-16866,-156,0.02,-1.01,-1.03,-241,-64,117,-0.2,0.08,-0.08
1132,-16776,-224,0.02,-1,-1.04,-241,-70,116,-0.2,-0.02,-0.09
1132,-16828,-188,0.02,-1.01,-1.04,-233,-73,121,-0.08,-0.06,-0.02
1098,-16776,-120,0.02,-1,-1.03,-233,-74,121,-0.08,-0.08,-0.02
1004,-16836,-316,0.01,-1.01,-1.04,-230,-62,117,-0.03,0.11,-0.08
1098,-16758,-148,0.02,-1,-1.03,-218,-74,117,0.15,-0.08,-0.08
1072,-16794,-186,0.02,-1.01,-1.04,-222,-74,123,0.09,-0.08,0.02
1066,-16834,-184,0.02,-1.01,-1.04,-233,-64,125,-0.08,0.08,0.05
1094,-16794,-172,0.02,-1.01,-1.04,-227,-60,127,0.02,0.14,0.08
1114,-16752,-252,0.02,-1,-1.04,-228,-72,132,0,-0.05,0.15
1158,-16836,-190,0.02,-1.01,-1.04,-224,-77,123,0.06,-0.12,0.02
1152,-16832,-80,0.02,-1.01,-1.03,-242,-79,125,-0.21,-0.15,0.05
1186,-16868,-90,0.02,-1.01,-1.03,-228,-67,124,0,0.03,0.03
1066,-16864,-68,0.02,-1.01,-1.03,-230,-72,122,-0.03,-0.05,0
1048,-16850,-182,0.01,-1.01,-1.04,-227,-72,131,0.02,-0.05,0.14
1068,-16816,-144,0.02,-1.01,-1.03,-229,-66,124,-0.02,0.05,0.03
1076,-16820,-90,0.02,-1.01,-1.03,-227,-61,129,0.02,0.12,0.11
1128,-16798,-200,0.02,-1.01,-1.04,-227,-58,127,0.02,0.17,0.08
1066,-16824,-202,0.02,-1.01,-1.04,-227,-75,124,0.02,-0.09,0.03
1120,-16836,-210,0.02,-1.01,-1.04,-215,-70,117,0.2,-0.02,-0.08
1124,-16812,-214,0.02,-1.01,-1.04,-233,-70,122,-0.08,-0.02,0
1146,-16748,-134,0.02,-1,-1.03,-235,-71,126,-0.11,-0.03,0.06
1116,-16824,-182,0.02,-1.01,-1.04,-243,-69,119,-0.23,0,-0.05
1010,-16826,-206,0.01,-1.01,-1.04,-233,-60,116,-0.08,0.14,-0.09
1140,-16796,-62,0.02,-1.01,-1.03,-241,-68,120,-0.2,0.02,-0.03
1020,-16768,-118,0.01,-1,-1.03,-229,-74,127,-0.02,-0.08,0.08
1070,-16774,-176,0.02,-1,-1.04,-228,-66,125,0,0.05,0.05
1114,-16856,-132,0.02,-1.01,-1.03,-216,-68,128,0.18,0.02,0.09
1072,-16810,-234,0.02,-1.01,-1.04,-230,-68,134,-0.03,0.02,0.18
1066,-16824,-118,0.02,-1.01,-1.03,-226,-63,130,0.03,0.09,0.12
1078,-16840,-192,0.02,-1.01,-1.04,-221,-68,129,0.11,0.02,0.11
1142,-16836,-188,0.02,-1.01,-1.04,-225,-59,123,0.05,0.15,0.02
1050,-16854,-134,0.01,-1.01,-1.03,-225,-65,125,0.05,0.06,0.05
1204,-16754,-194,0.02,-1,-1.04,-222,-71,120,0.09,-0.03,-0.03
1056,-16836,-220,0.01,-1.01,-1.04,-226,-72,132,0.03,-0.05,0.15
1118,-16900,-92,0.02,-1.01,-1.03,-224,-68,130,0.06,0.02,0.12
1094,-16786,-186,0.02,-1,-1.04,-228,-58,124,0,0.17,0.03
1130,-16794,-102,0.02,-1.01,-1.03,-224,-75,119,0.06,-0.09,-0.05
1116,-16860,-174,0.02,-1.01,-1.04,-221,-74,127,0.11,-0.08,0.08
1108,-16778,-128,0.02,-1,-1.03,-234,-60,131,-0.09,0.14,0.14
1092,-16784,-30,0.02,-1,-1.03,-229,-63,123,-0.02,0.09,0.02
1058,-16858,-164,0.01,-1.01,-1.04,-241,-72,120,-0.2,-0.05,-0.03
1122,-16838,-264,0.02,-1.01,-1.04,-228,-63,107,0,0.09,-0.23
1146,-16784,-216,0.02,-1,-1.04,-231,-69,120,-0.05,0,-0.03
1104,-16820,-270,0.02,-1.01,-1.04,-233,-66,119,-0.08,0.05,-0.05
1106,-16740,-162,0.02,-1,-1.03,-228,-70,120,0,-0.02,-0.03
1054,-16790,-178,0.01,-1,-1.04,-228,-65,116,0,0.06,-0.09
1116,-16878,-136,0.02,-1.01,-1.03,-236,-73,116,-0.12,-0.06,-0.09
1042,-16786,-154,0.01,-1,-1.03,-231,-68,125,-0.05,0.02,0.05
1092,-16838,-222,0.02,-1.01,-1.04,-232,-73,131,-0.06,-0.06,0.14
1092,-16732,-204,0.02,-1,-1.04,-228,-63,120,0,0.09,-0.03
1122,-16834,-24,0.02,-1.01,-1.03,-219,-65,130,0.14,0.06,0.12
1184,-16864,-198,0.02,-1.01,-1.04,-232,-72,127,-0.06,-0.05,0.08
1082,-16864,-234,0.02,-1.01,-1.04,-224,-70,120,0.06,-0.02,-0.03
1132,-16752,-204,0.02,-1,-1.04,-242,-69,121,-0.21,0,-0.02
1142,-16760,-222,0.02,-1,-1.04,-230,-51,117,-0.03,0.27,-0.08
1150,-16846,-182,0.02,-1.01,-1.04,-226,-67,122,0.03,0.03,0
1138,-16846,-180,0.02,-1.01,-1.04,-232,-68,119,-0.06,0.02,-0.05
1136,-16772,-156,0.02,-1,-1.03,-234,-63,125,-0.09,0.09,0.05
1148,-16756,-230,0.02,-1,-1.04,-231,-84,122,-0.05,-0.23,0
1162,-16792,-104,0.02,-1,-1.03,-230,-72,126,-0.03,-0.05,0.06
1098,-16844,-102,0.02,-1.01,-1.03,-235,-79,120,-0.11,-0.15,-0.03
1152,-16834,-76,0.02,-1.01,-1.03,-232,-65,129,-0.06,0.06,0.11
1004,-16894,-82,0.01,-1.01,-1.03,-231,-72,118,-0.05,-0.05,-0.06
1098,-16898,-230,0.02,-1.01,-1.04,-229,-68,131,-0.02,0.02,0.14
1116,-16818,-228,0.02,-1.01,-1.04,-229,-82,119,-0.02,-0.2,-0.05
1112,-16680,-120,0.02,-1,-1.03,-230,-64,118,-0.03,0.08,-0.06
1032,-16808,-180,0.01,-1.01,-1.04,-230,-70,124,-0.03,-0.02,0.03
1152,-16800,-148,0.02,-1.01,-1.03,-232,-63,120,-0.06,0.09,-0.03
1124,-16876,-132,0.02,-1.01,-1.03,-224,-71,118,0.06,-0.03,-0.06
1096,-16844,-304,0.02,-1.01,-1.04,-228,-58,123,0,0.17,0.02
1166,-16840,-172,0.02,-1.01,-1.04,-229,-71,123,-0.02,-0.03,0.02
1100,-16804,-168,0.02,-1.01,-1.04,-227,-57,122,0.02,0.18,0
1076,-16818,-308,0.02,-1.01,-1.04,-225,-65,129,0.05,0.06,0.11
1184,-16760,-248,0.02,-1,-1.04,-227,-63,121,0.02,0.09,-0.02
1128,-16822,-164,0.02,-1.01,-1.04,-228,-66,126,0,0.05,0.06
1176,-16848,-290,0.02,-1.01,-1.04,-221,-71,118,0.11,-0.03,-0.06
1066,-16820,-136,0.02,-1.01,-1.03,-230,-69,120,-0.03,0,-0.03
1114,-16836,-242,0.02,-1.01,-1.04,-222,-73,122,0.09,-0.06,0
1116,-16794,-170,0.02,-1.01,-1.04,-234,-72,118,-0.09,-0.05,-0.06
1120,-16840,-136,0.02,-1.01,-1.03,-237,-70,136,-0.14,-0.02,0.21
1092,-16826,-84,0.02,-1.01,-1.03,-225,-66,118,0.05,0.05,-0.06
1028,-16800,-156,0.01,-1.01,-1.03,-229,-68,122,-0.02,0.02,0
1106,-16826,-86,0.02,-1.01,-1.03,-231,-64,120,-0.05,0.08,-0.03
1046,-16860,-154,0.01,-1.01,-1.03,-227,-74,123,0.02,-0.08,0.02
1098,-16846,-38,0.02,-1.01,-1.03,-233,-72,128,-0.08,-0.05,0.09
1082,-16846,-168,0.02,-1.01,-1.04,-230,-64,126,-0.03,0.08,0.06
1090,-16846,-118,0.02,-1.01,-1.03,-234,-66,115,-0.09,0.05,-0.11
1054,-16836,-112,0.01,-1.01,-1.03,-232,-62,125,-0.06,0.11,0.05
1098,-16824,-204,0.02,-1.01,-1.04,-232,-54,129,-0.06,0.23,0.11
1124,-16834,-114,0.02,-1.01,-1.03,-233,-79,118,-0.08,-0.15,-0.06
1204,-16808,-92,0.02,-1.01,-1.03,-226,-71,128,0.03,-0.03,0.09
1098,-16894,-136,0.02,-1.01,-1.03,-217,-83,124,0.17,-0.21,0.03
1084,-16778,-238,0.02,-1,-1.04,-231,-78,126,-0.05,-0.14,0.06
1122,-16858,-216,0.02,-1.01,-1.04,-225,-62,135,0.05,0.11,0.2
1178,-16798,-192,0.02,-1.01,-1.04,-229,-66,129,-0.02,0.05,0.11
1138,-16782,-110,0.02,-1,-1.03,-225,-61,121,0.05,0.12,-0.02
1136,-16848,-170,0.02,-1.01,-1.04,-226,-65,121,0.03,0.06,-0.02
1106,-16832,-208,0.02,-1.01,-1.04,-222,-64,126,0.09,0.08,0.06
1184,-16882,-228,0.02,-1.01,-1.04,-232,-77,125,-0.06,-0.12,0.05
1140,-16826,-226,0.02,-1.01,-1.04,-224,-83,127,0.06,-0.21,0.08
1050,-16818,-214,0.01,-1.01,-1.04,-234,-73,119,-0.09,-0.06,-0.05
1090,-16778,-250,0.02,-1,-1.04,-223,-69,124,0.08,0,0.03
1152,-16816,-72,0.02,-1.01,-1.03,-224,-85,116,0.06,-0.24,-0.09
1072,-16746,-210,0.02,-1,-1.04,-232,-69,122,-0.06,0,0
1122,-16832,-176,0.02,-1.01,-1.04,-232,-75,126,-0.06,-0.09,0.06
1112,-16878,-278,0.02,-1.01,-1.04,-239,-59,114,-0.17,0.15,-0.12
1078,-16888,-222,0.02,-1.01,-1.04,-234,-68,127,-0.09,0.02,0.08
1094,-16884,-256,0.02,-1.01,-1.04,-248,-69,115,-0.31,0,-0.11
1006,-16810,-74,0.01,-1.01,-1.03,-232,-78,129,-0.06,-0.14,0.11
1008,-16802,-100,0.01,-1.01,-1.03,-231,-71,121,-0.05,-0.03,-0.02
1086,-16806,-198,0.02,-1.01,-1.04,-228,-78,130,0,-0.14,0.12
1078,-16838,-76,0.02,-1.01,-1.03,-227,-74,125,0.02,-0.08,0.05
1100,-16862,-198,0.02,-1.01,-1.04,-236,-77,122,-0.12,-0.12,0
1050,-16820,-184,0.01,-1.01,-1.04,-228,-66,125,0,0.05,0.05
1022,-16856,-102,0.01,-1.01,-1.03,-226,-73,129,0.03,-0.06,0.11
1138,-16810,-94,0.02,-1.01,-1.03,-231,-76,124,-0.05,-0.11,0.03
1056,-16820,-164,0.01,-1.01,-1.04,-231,-71,121,-0.05,-0.03,-0.02
1132,-16770,-176,0.02,-1,-1.04,-237,-65,122,-0.14,0.06,0
1160,-16816,-208,0.02,-1.01,-1.04,-225,-64,120,0.05,0.08,-0.03
1104,-16800,-62,0.02,-1.01,-1.03,-224,-76,133,0.06,-0.11,0.17
1082,-16816,-198,0.02,-1.01,-1.04,-223,-70,125,0.08,-0.02,0.05
1186,-16820,-160,0.02,-1.01,-1.03,-221,-65,126,0.11,0.06,0.06
1096,-16866,-92,0.02,-1.01,-1.03,-220,-65,129,0.12,0.06,0.11
1138,-16780,-140,0.02,-1,-1.03,-214,-66,137,0.21,0.05,0.23
1100,-16854,-106,0.02,-1.01,-1.03,-222,-76,123,0.09,-0.11,0.02
1140,-16846,-268,0.02,-1.01,-1.04,-223,-76,126,0.08,-0.11,0.06
1062,-16812,-114,0.01,-1.01,-1.03,-226,-73,132,0.03,-0.06,0.15
1090,-16820,-246,0.02,-1.01,-1.04,-227,-64,122,0.02,0.08,0
1214,-16764,-122,0.02,-1,-1.03,-231,-66,126,-0.05,0.05,0.06
1094,-16900,-216,0.02,-1.01,-1.04,-229,-72,112,-0.02,-0.05,-0.15
1100,-16832,-254,0.02,-1.01,-1.04,-224,-58,129,0.06,0.17,0.11
1164,-16760,-150,0.02,-1,-1.03,-234,-72,119,-0.09,-0.05,-0.05
1104,-16842,-162,0.02,-1.01,-1.03,-227,-57,125,0.02,0.18,0.05
1130,-16668,-154,0.02,-1,-1.03,-237,-68,112,-0.14,0.02,-0.15
1128,-16876,-220,0.02,-1.01,-1.04,-236,-66,120,-0.12,0.05,-0.03
1112,-16834,-206,0.02,-1.01,-1.04,-243,-69,123,-0.23,0,0.02
1158,-16812,-138,0.02,-1.01,-1.03,-231,-71,120,-0.05,-0.03,-0.03
1062,-16784,-94,0.01,-1,-1.03,-239,-72,117,-0.17,-0.05,-0.08
1144,-16770,-46,0.02,-1,-1.03,-238,-69,121,-0.15,0,-0.02
1112,-16812,-150,0.02,-1.01,-1.03,-228,-66,124,0,0.05,0.03
1080,-16792,-222,0.02,-1,-1.04,-224,-76,125,0.06,-0.11,0.05
1062,-16872,-130,0.01,-1.01,-1.03,-235,-58,118,-0.11,0.17,-0.06
1144,-16796,-186,0.02,-1.01,-1.04,-227,-70,129,0.02,-0.02,0.11
1090,-16898,-14,0.02,-1.01,-1.03,-233,-61,120,-0.08,0.12,-0.03
1120,-16916,-188,0.02,-1.01,-1.04,-230,-72,115,-0.03,-0.05,-0.11
1104,-16782,-166,0.02,-1,-1.04,-232,-74,120,-0.06,-0.08,-0.03
1080,-16776,-220,0.02,-1,-1.04,-228,-72,122,0,-0.05,0
1126,-16834,-146,0.02,-1.01,-1.03,-233,-68,119,-0.08,0.02,-0.05
1140,-16812,-44,0.02,-1.01,-1.03,-233,-64,131,-0.08,0.08,0.14
1112,-16798,-266,0.02,-1.01,-1.04,-228,-72,130,0,-0.05,0.12
1146,-16722,-112,0.02,-1,-1.03,-228,-66,117,0,0.05,-0.08
1144,-16810,-96,0.02,-1.01,-1.03,-227,-65,132,0.02,0.06,0.15
1174,-16854,-170,0.02,-1.01,-1.04,-233,-75,115,-0.08,-0.09,-0.11
1116,-16810,-178,0.02,-1.01,-1.04,-222,-67,134,0.09,0.03,0.18
1150,-16862,-264,0.02,-1.01,-1.04,-242,-64,118,-0.21,0.08,-0.06
1152,-16860,-122,0.02,-1.01,-1.03,-228,-65,125,0,0.06,0.05
1102,-16844,-82,0.02,-1.01,-1.03,-233,-61,122,-0.08,0.12,0
1074,-16826,-206,0.02,-1.01,-1.04,-231,-64,125,-0.05,0.08,0.05
1128,-16782,-124,0.02,-1,-1.03,-227,-65,122,0.02,0.06,0
1168,-16870,-150,0.02,-1.01,-1.03,-230,-67,124,-0.03,0.03,0.03
1122,-16806,-116,0.02,-1.01,-1.03,-222,-67,128,0.09,0.03,0.09
1180,-16820,-146,0.02,-1.01,-1.03,-230,-73,130,-0.03,-0.06,0.12
1112,-16838,-204,0.02,-1.01,-1.04,-224,-73,117,0.06,-0.06,-0.08
1114,-16772,-126,0.02,-1,-1.03,-227,-70,121,0.02,-0.02,-0.02
1118,-16848,-240,0.02,-1.01,-1.04,-229,-67,129,-0.02,0.03,0.11
1102,-16828,-76,0.02,-1.01,-1.03,-235,-71,116,-0.11,-0.03,-0.09
1080,-16726,-96,0.02,-1,-1.03,-228,-70,121,0,-0.02,-0.02
1150,-16848,-236,0.02,-1.01,-1.04,-224,-65,122,0.06,0.06,0
1130,-16798,-82,0.02,-1.01,-1.03,-222,-72,124,0.09,-0.05,0.03
1060,-16708,-116,0.01,-1,-1.03,-229,-64,117,-0.02,0.08,-0.08
1128,-16804,-194,0.02,-1.01,-1.04,-223,-68,120,0.08,0.02,-0.03
1146,-16782,-170,0.02,-1,-1.04,-226,-74,124,0.03,-0.08,0.03
1154,-16750,-198,0.02,-1,-1.04,-229,-68,124,-0.02,0.02,0.03
1108,-16762,-114,0.02,-1,-1.03,-230,-65,111,-0.03,0.06,-0.17
1084,-16788,-196,0.02,-1,-1.04,-224,-75,116,0.06,-0.09,-0.09
1072,-16870,-328,0.02,-1.01,-1.05,-230,-69,130,-0.03,0,0.12
1202,-16794,-132,0.02,-1.01,-1.03,-228,-64,129,0,0.08,0.11
1092,-16768,-56,0.02,-1,-1.03,-231,-72,120,-0.05,-0.05,-0.03
1098,-16836,-32,0.02,-1.01,-1.03,-226,-66,120,0.03,0.05,-0.03
1122,-16840,-188,0.02,-1.01,-1.04,-226,-65,127,0.03,0.06,0.08
1104,-16782,-264,0.02,-1,-1.04,-223,-66,123,0.08,0.05,0.02
1112,-16780,-216,0.02,-1,-1.04,-223,-60,131,0.08,0.14,0.14
1122,-16824,-104,0.02,-1.01,-1.03,-229,-68,126,-0.02,0.02,0.06
1112,-16776,-144,0.02,-1,-1.03,-231,-55,120,-0.05,0.21,-0.03
1152,-16794,-220,0.02,-1.01,-1.04,-226,-70,117,0.03,-0.02,-0.08
1108,-16774,-164,0.02,-1,-1.04,-226,-71,132,0.03,-0.03,0.15
1084,-16792,-116,0.02,-1,-1.03,-223,-72,118,0.08,-0.05,-0.06
1138,-16792,-174,0.02,-1,-1.04,-229,-67,123,-0.02,0.03,0.02
1044,-16796,-218,0.01,-1.01,-1.04,-227,-71,115,0.02,-0.03,-0.11
1120,-16824,-192,0.02,-1.01,-1.04,-226,-73,123,0.03,-0.06,0.02
1100,-16772,-186,0.02,-1,-1.04,-221,-71,118,0.11,-0.03,-0.06
1188,-16802,-54,0.02,-1.01,-1.03,-223,-63,121,0.08,0.09,-0.02
1060,-16810,-198,0.01,-1.01,-1.04,-233,-64,130,-0.08,0.08,0.12
1060,-16816,-120,0.01,-1.01,-1.03,-234,-63,133,-0.09,0.09,0.17
1176,-16760,-140,0.02,-1,-1.03,-227,-60,123,0.02,0.14,0.02
1128,-16818,-94,0.02,-1.01,-1.03,-235,-65,125,-0.11,0.06,0.05
1138,-16836,-114,0.02,-1.01,-1.03,-238,-60,121,-0.15,0.14,-0.02
1080,-16810,-230,0.02,-1.01,-1.04,-245,-71,132,-0.26,-0.03,0.15
1032,-16856,-298,0.01,-1.01,-1.04,-234,-64,117,-0.09,0.08,-0.08
1076,-16848,-302,0.02,-1.01,-1.04,-225,-70,131,0.05,-0.02,0.14
1146,-16770,-134,0.02,-1,-1.03,-223,-65,128,0.08,0.06,0.09
1072,-16824,-42,0.02,-1.01,-1.03,-218,-69,120,0.15,0,-0.03
1096,-16774,-170,0.02,-1,-1.04,-224,-73,118,0.06,-0.06,-0.06
1102,-16856,-414,0.02,-1.01,-1.05,-233,-70,118,-0.08,-0.02,-0.06
1148,-16764,-176,0.02,-1,-1.04,-234,-76,122,-0.09,-0.11,0
1132,-16852,-202,0.02,-1.01,-1.04,-228,-71,131,0,-0.03,0.14
1158,-16824,-214,0.02,-1.01,-1.04,-228,-65,130,0,0.06,0.12
1038,-16772,-158,0.01,-1,-1.03,-228,-66,117,0,0.05,-0.08
1066,-16764,-106,0.02,-1,-1.03,-233,-68,123,-0.08,0.02,0.02
1130,-16802,20,0.02,-1.01,-1.02,-236,-79,129,-0.12,-0.15,0.11
1076,-16780,-162,0.02,-1,-1.03,-229,-75,118,-0.02,-0.09,-0.06
1064,-16774,-206,0.02,-1,-1.04,-235,-70,118,-0.11,-0.02,-0.06
1104,-16788,-168,0.02,-1,-1.04,-227,-67,122,0.02,0.03,0
1074,-16838,-168,0.02,-1.01,-1.04,-226,-74,132,0.03,-0.08,0.15
1122,-16788,-142,0.02,-1,-1.03,-214,-64,125,0.21,0.08,0.05
1100,-16834,-204,0.02,-1.01,-1.04,-236,-76,137,-0.12,-0.11,0.23
1048,-16790,-152,0.01,-1,-1.03,-230,-65,124,-0.03,0.06,0.03
1050,-16726,-200,0.01,-1,-1.04,-231,-65,126,-0.05,0.06,0.06
1166,-16740,-174,0.02,-1,-1.04,-229,-68,125,-0.02,0.02,0.05
1076,-16794,-150,0.02,-1.01,-1.03,-225,-72,125,0.05,-0.05,0.05
1276,-16784,-150,0.03,-1,-1.03,-223,-73,134,0.08,-0.06,0.18
1200,-16840,-186,0.02,-1.01,-1.04,-219,-63,120,0.14,0.09,-0.03
1166,-16824,-164,0.02,-1.01,-1.04,-230,-65,127,-0.03,0.06,0.08
1112,-16774,-182,0.02,-1,-1.04,-226,-75,114,0.03,-0.09,-0.12
1122,-16764,-178,0.02,-1,-1.04,-219,-58,125,0.14,0.17,0.05
1126,-16864,-200,0.02,-1.01,-1.04,-226,-77,126,0.03,-0.12,0.06
1118,-16762,-154,0.02,-1,-1.03,-232,-78,123,-0.06,-0.14,0.02
1172,-16836,-202,0.02,-1.01,-1.04,-223,-61,123,0.08,0.12,0.02
1086,-16840,-132,0.02,-1.01,-1.03,-221,-62,122,0.11,0.11,0
1084,-16810,-164,0.02,-1.01,-1.04,-227,-73,126,0.02,-0.06,0.06
1120,-16874,-98,0.02,-1.01,-1.03,-234,-72,125,-0.09,-0.05,0.05
1148,-16840,-132,0.02,-1.01,-1.03,-233,-62,128,-0.08,0.11,0.09
1140,-16796,-162,0.02,-1.01,-1.03,-231,-62,121,-0.05,0.11,-0.02
1086,-16788,-176,0.02,-1,-1.04,-239,-65,129,-0.17,0.06,0.11
1154,-16794,-172,0.02,-1.01,-1.04,-231,-72,118,-0.05,-0.05,-0.06
1048,-16784,-258,0.01,-1,-1.04,-226,-70,125,0.03,-0.02,0.05
1128,-16870,-98,0.02,-1.01,-1.03,-221,-67,127,0.11,0.03,0.08
1134,-16844,-164,0.02,-1.01,-1.04,-223,-63,123,0.08,0.09,0.02
1186,-16774,-186,0.02,-1,-1.04,-230,-66,125,-0.03,0.05,0.05
1172,-16842,-196,0.02,-1.01,-1.04,-226,-68,120,0.03,0.02,-0.03
1092,-16790,-130,0.02,-1,-1.03,-230,-70,121,-0.03,-0.02,-0.02
1082,-16858,-150,0.02,-1.01,-1.03,-224,-65,118,0.06,0.06,-0.06
1142,-16806,-180,0.02,-1.01,-1.04,-223,-64,132,0.08,0.08,0.15
1098,-16820,-148,0.02,-1.01,-1.03,-230,-73,126,-0.03,-0.06,0.06
1106,-16848,-128,0.02,-1.01,-1.03,-236,-62,126,-0.12,0.11,0.06
1108,-16810,-112,0.02,-1.01,-1.03,-235,-58,124,-0.11,0.17,0.03
1054,-16812,-138,0.01,-1.01,-1.03,-234,-66,125,-0.09,0.05,0.05
1072,-16782,-238,0.02,-1,-1.04,-234,-82,121,-0.09,-0.2,-0.02
1134,-16888,-208,0.02,-1.01,-1.04,-218,-66,133,0.15,0.05,0.17
1076,-16840,-178,0.02,-1.01,-1.04,-220,-65,132,0.12,0.06,0.15
1132,-16846,-216,0.02,-1.01,-1.04,-227,-67,128,0.02,0.03,0.09
1072,-16860,-152,0.02,-1.01,-1.03,-220,-66,135,0.12,0.05,0.2
1140,-16838,-146,0.02,-1.01,-1.03,-218,-70,126,0.15,-0.02,0.06
1056,-16806,-290,0.01,-1.01,-1.04,-233,-75,128,-0.08,-0.09,0.09
1140,-16836,-198,0.02,-1.01,-1.04,-222,-67,130,0.09,0.03,0.12
1188,-16802,-200,0.02,-1.01,-1.04,-234,-63,123,-0.09,0.09,0.02
1044,-16848,-284,0.01,-1.01,-1.04,-228,-72,120,0,-0.05,-0.03
1102,-16818,-140,0.02,-1.01,-1.03,-225,-70,124,0.05,-0.02,0.03
1094,-16738,-64,0.02,-1,-1.03,-225,-66,120,0.05,0.05,-0.03
1066,-16778,-252,0.02,-1,-1.04,-230,-70,128,-0.03,-0.02,0.09
1058,-16810,-146,0.01,-1.01,-1.03,-224,-73,134,0.06,-0.06,0.18
1138,-16740,-204,0.02,-1,-1.04,-223,-66,125,0.08,0.05,0.05
1098,-16802,-116,0.02,-1.01,-1.03,-229,-67,129,-0.02,0.03,0.11
1102,-16814,-122,0.02,-1.01,-1.03,-232,-62,118,-0.06,0.11,-0.06
1068,-16832,-86,0.02,-1.01,-1.03,-224,-66,120,0.06,0.05,-0.03
1112,-16866,-194,0.02,-1.01,-1.04,-225,-73,121,0.05,-0.06,-0.02
1012,-16748,-186,0.01,-1,-1.04,-234,-81,119,-0.09,-0.18,-0.05
1172,-16762,-204,0.02,-1,-1.04,-227,-66,124,0.02,0.05,0.03
1118,-16858,-88,0.02,-1.01,-1.03,-226,-72,131,0.03,-0.05,0.14
1118,-16762,-192,0.02,-1,-1.04,-218,-72,126,0.15,-0.05,0.06
1198,-16846,-258,0.02,-1.01,-1.04,-229,-64,125,-0.02,0.08,0.05
1044,-16858,-158,0.01,-1.01,-1.03,-224,-69,120,0.06,0,-0.03
1076,-16804,-204,0.02,-1.01,-1.04,-222,-72,126,0.09,-0.05,0.06
1146,-16818,-188,0.02,-1.01,-1.04,-241,-76,124,-0.2,-0.11,0.03
1080,-16806,-258,0.02,-1.01,-1.04,-224,-70,122,0.06,-0.02,0
1136,-16786,-108,0.02,-1,-1.03,-228,-63,129,0,0.09,0.11
1150,-16792,-164,0.02,-1,-1.04,-232,-68,122,-0.06,0.02,0
1146,-16838,-184,0.02,-1.01,-1.04,-226,-65,124,0.03,0.06,0.03
1180,-16778,-138,0.02,-1,-1.03,-240,-70,114,-0.18,-0.02,-0.12
1098,-16772,-42,0.02,-1,-1.03,-227,-66,109,0.02,0.05,-0.2
1184,-16752,-270,0.02,-1,-1.04,-222,-66,118,0.09,0.05,-0.06
1068,-16902,-78,0.02,-1.01,-1.03,-231,-63,121,-0.05,0.09,-0.02
1122,-16830,-182,0.02,-1.01,-1.04,-230,-69,124,-0.03,0,0.03
1048,-16796,-26,0.01,-1.01,-1.03,-225,-75,137,0.05,-0.09,0.23
1150,-16898,-188,0.02,-1.01,-1.04,-226,-71,136,0.03,-0.03,0.21
1090,-16860,-216,0.02,-1.01,-1.04,-234,-72,121,-0.09,-0.05,-0.02
1122,-16822,-230,0.02,-1.01,-1.04,-219,-70,119,0.14,-0.02,-0.05
1056,-16844,-120,0.01,-1.01,-1.03,-231,-76,124,-0.05,-0.11,0.03
1174,-16806,-222,0.02,-1.01,-1.04,-233,-73,112,-0.08,-0.06,-0.15
1098,-16766,-116,0.02,-1,-1.03,-229,-59,121,-0.02,0.15,-0.02
1132,-16806,-178,0.02,-1.01,-1.04,-232,-62,128,-0.06,0.11,0.09
1144,-16832,-124,0.02,-1.01,-1.03,-223,-80,118,0.08,-0.17,-0.06
1128,-16772,-130,0.02,-1,-1.03,-228,-79,120,0,-0.15,-0.03
1120,-16788,-230,0.02,-1,-1.04,-228,-67,130,0,0.03,0.12
1152,-16828,-126,0.02,-1.01,-1.03,-228,-67,117,0,0.03,-0.08
1168,-16822,-112,0.02,-1.01,-1.03,-228,-63,117,0,0.09,-0.08
1186,-16816,-126,0.02,-1.01,-1.03,-239,-70,121,-0.17,-0.02,-0.02
1100,-16858,-144,0.02,-1.01,-1.03,-231,-69,119,-0.05,0,-0.05
1124,-16814,-164,0.02,-1.01,-1.04,-224,-75,121,0.06,-0.09,-0.02
1142,-16838,-120,0.02,-1.01,-1.03,-231,-63,128,-0.05,0.09,0.09
1062,-16850,-192,0.01,-1.01,-1.04,-235,-69,120,-0.11,0,-0.03
1076,-16830,-212,0.02,-1.01,-1.04,-237,-62,115,-0.14,0.11,-0.11
1112,-16854,-126,0.02,-1.01,-1.03,-225,-59,126,0.05,0.15,0.06
1150,-16852,-154,0.02,-1.01,-1.03,-228,-67,121,0,0.03,-0.02
1116,-16760,-60,0.02,-1,-1.03,-234,-74,119,-0.09,-0.08,-0.05
1154,-16820,-262,0.02,-1.01,-1.04,-227,-67,123,0.02,0.03,0.02
1150,-16842,-204,0.02,-1.01,-1.04,-223,-70,123,0.08,-0.02,0.02
1114,-16824,-142,0.02,-1.01,-1.03,-228,-70,126,0,-0.02,0.06
1138,-16760,-230,0.02,-1,-1.04,-233,-74,124,-0.08,-0.08,0.03
1076,-16780,-180,0.02,-1,-1.04,-231,-65,121,-0.05,0.06,-0.02
1184,-16796,-184,0.02,-1.01,-1.04,-218,-66,116,0.15,0.05,-0.09
1130,-16844,-232,0.02,-1.01,-1.04,-227,-74,118,0.02,-0.08,-0.06
1100,-16844,-118,0.02,-1.01,-1.03,-228,-77,129,0,-0.12,0.11
1082,-16738,-170,0.02,-1,-1.04,-226,-75,129,0.03,-0.09,0.11
1114,-16926,-112,0.02,-1.01,-1.03,-232,-69,119,-0.06,0,-0.05
1038,-16776,-210,0.01,-1,-1.04,-223,-67,121,0.08,0.03,-0.02
1064,-16762,-142,0.02,-1,-1.03,-233,-72,124,-0.08,-0.05,0.03
1154,-16786,-62,0.02,-1,-1.03,-227,-72,128,0.02,-0.05,0.09
1166,-16732,-106,0.02,-1,-1.03,-232,-65,127,-0.06,0.06,0.08
1116,-16818,-242,0.02,-1.01,-1.04,-229,-70,128,-0.02,-0.02,0.09
1126,-16802,-184,0.02,-1.01,-1.04,-233,-64,126,-0.08,0.08,0.06
1098,-16772,-170,0.02,-1,-1.04,-233,-74,134,-0.08,-0.08,0.18
1120,-16814,-230,0.02,-1.01,-1.04,-229,-66,133,-0.02,0.05,0.17
1102,-16880,-80,0.02,-1.01,-1.03,-232,-68,122,-0.06,0.02,0
1136,-16788,-104,0.02,-1,-1.03,-227,-68,124,0.02,0.02,0.03
1102,-16854,-164,0.02,-1.01,-1.04,-225,-56,125,0.05,0.2,0.05
1130,-16828,-210,0.02,-1.01,-1.04,-220,-72,124,0.12,-0.05,0.03
1050,-16802,-92,0.01,-1.01,-1.03,-211,-69,123,0.26,0,0.02
1146,-16866,-322,0.02,-1.01,-1.04,-233,-72,119,-0.08,-0.05,-0.05
1152,-16856,-276,0.02,-1.01,-1.04,-222,-72,125,0.09,-0.05,0.05
1120,-16820,-236,0.02,-1.01,-1.04,-223,-70,122,0.08,-0.02,0
1048,-16794,-16,0.01,-1.01,-1.03,-223,-73,119,0.08,-0.06,-0.05
1092,-16838,-172,0.02,-1.01,-1.04,-228,-67,119,0,0.03,-0.05
1106,-16840,-176,0.02,-1.01,-1.04,-230,-61,124,-0.03,0.12,0.03
1148,-16806,-288,0.02,-1.01,-1.04,-233,-73,128,-0.08,-0.06,0.09
1126,-16820,-220,0.02,-1.01,-1.04,-222,-69,143,0.09,0,0.32
1078,-16800,-164,0.02,-1.01,-1.04,-218,-64,131,0.15,0.08,0.14
1102,-16802,-234,0.02,-1.01,-1.04,-220,-72,128,0.12,-0.05,0.09
1136,-16834,-126,0.02,-1.01,-1.03,-223,-70,117,0.08,-0.02,-0.08
1078,-16794,-194,0.02,-1.01,-1.04,-217,-67,123,0.17,0.03,0.02
1110,-16808,-178,0.02,-1.01,-1.04,-229,-68,130,-0.02,0.02,0.12
1098,-16864,-242,0.02,-1.01,-1.04,-227,-66,119,0.02,0.05,-0.05
1132,-16684,-182,0.02,-1,-1.04,-225,-71,123,0.05,-0.03,0.02
1074,-16802,-188,0.02,-1.01,-1.04,-228,-75,119,0,-0.09,-0.05
1072,-16880,-282,0.02,-1.01,-1.04,-228,-80,116,0,-0.17,-0.09
1154,-16802,-172,0.02,-1.01,-1.04,-232,-79,124,-0.06,-0.15,0.03
1038,-16796,-70,0.01,-1.01,-1.03,-231,-66,120,-0.05,0.05,-0.03
1186,-16882,-206,0.02,-1.01,-1.04,-232,-81,119,-0.06,-0.18,-0.05
1108,-16828,-194,0.02,-1.01,-1.04,-232,-77,119,-0.06,-0.12,-0.05
1158,-16856,-190,0.02,-1.01,-1.04,-231,-66,116,-0.05,0.05,-0.09
1110,-16788,-186,0.02,-1,-1.04,-222,-65,131,0.09,0.06,0.14
1126,-16790,-124,0.02,-1,-1.03,-230,-64,127,-0.03,0.08,0.08
1116,-16834,-144,0.02,-1.01,-1.03,-229,-64,122,-0.02,0.08,0
1070,-16838,-184,0.02,-1.01,-1.04,-220,-68,126,0.12,0.02,0.06
1112,-16766,-118,0.02,-1,-1.03,-223,-70,122,0.08,-0.02,0
1106,-16822,-298,0.02,-1.01,-1.04,-232,-76,124,-0.06,-0.11,0.03
1152,-16820,-158,0.02,-1.01,-1.03,-223,-69,128,0.08,0,0.09
1070,-16792,-286,0.02,-1,-1.04,-225,-72,130,0.05,-0.05,0.12
1116,-16770,-180,0.02,-1,-1.04,-225,-67,120,0.05,0.03,-0.03
1194,-16874,-122,0.02,-1.01,-1.03,-233,-68,125,-0.08,0.02,0.05
1124,-16826,-166,0.02,-1.01,-1.04,-229,-67,126,-0.02,0.03,0.06
1124,-16764,-250,0.02,-1,-1.04,-235,-67,126,-0.11,0.03,0.06
1120,-16824,-230,0.02,-1.01,-1.04,-237,-68,118,-0.14,0.02,-0.06
1084,-16866,-84,0.02,-1.01,-1.03,-226,-74,120,0.03,-0.08,-0.03
1110,-16792,-188,0.02,-1,-1.04,-223,-73,127,0.08,-0.06,0.08
1070,-16792,-150,0.02,-1,-1.03,-222,-73,129,0.09,-0.06,0.11
1184,-16810,-186,0.02,-1.01,-1.04,-218,-69,130,0.15,0,0.12
1122,-16864,-192,0.02,-1.01,-1.04,-230,-67,125,-0.03,0.03,0.05
1054,-16844,-168,0.01,-1.01,-1.04,-229,-72,128,-0.02,-0.05,0.09
1158,-16738,-298,0.02,-1,-1.04,-225,-70,117,0.05,-0.02,-0.08
1102,-16728,-150,0.02,-1,-1.03,-225,-69,125,0.05,0,0.05
1136,-16832,-168,0.02,-1.01,-1.04,-226,-69,126,0.03,0,0.06
1100,-16842,-184,0.02,-1.01,-1.04,-217,-66,127,0.17,0.05,0.08
1092,-16808,-62,0.02,-1.01,-1.03,-224,-68,131,0.06,0.02,0.14
1158,-16882,-290,0.02,-1.01,-1.04,-223,-65,126,0.08,0.06,0.06
1088,-16722,-150,0.02,-1,-1.03,-233,-68,126,-0.08,0.02,0.06
1114,-16854,-220,0.02,-1.01,-1.04,-232,-74,128,-0.06,-0.08,0.09
1178,-16880,-158,0.02,-1.01,-1.03,-229,-71,113,-0.02,-0.03,-0.14
1064,-16876,-108,0.02,-1.01,-1.03,-225,-65,129,0.05,0.06,0.11
1076,-16782,-242,0.02,-1,-1.04,-227,-74,129,0.02,-0.08,0.11
1180,-16786,-114,0.02,-1,-1.03,-224,-68,129,0.06,0.02,0.11
1152,-16814,-182,0.02,-1.01,-1.04,-223,-57,131,0.08,0.18,0.14
1136,-16798,-138,0.02,-1.01,-1.03,-236,-68,122,-0.12,0.02,0
1142,-16858,-104,0.02,-1.01,-1.03,-240,-67,118,-0.18,0.03,-0.06
1090,-16752,-240,0.02,-1,-1.04,-240,-65,116,-0.18,0.06,-0.09
1140,-16842,-170,0.02,-1.01,-1.04,-227,-69,114,0.02,0,-0.12
1072,-16814,-244,0.02,-1.01,-1.04,-218,-73,121,0.15,-0.06,-0.02
1140,-16826,-228,0.02,-1.01,-1.04,-236,-70,115,-0.12,-0.02,-0.11
1122,-16790,-140,0.02,-1,-1.03,-239,-67,122,-0.17,0.03,0
1100,-16800,-226,0.02,-1.01,-1.04,-231,-71,111,-0.05,-0.03,-0.17
1096,-16742,-168,0.02,-1,-1.04,-231,-72,122,-0.05,-0.05,0
1114,-16850,-152,0.02,-1.01,-1.03,-239,-74,114,-0.17,-0.08,-0.12
1028,-16766,-154,0.01,-1,-1.03,-234,-72,125,-0.09,-0.05,0.05
1156,-16892,-142,0.02,-1.01,-1.03,-232,-69,130,-0.06,0,0.12
1094,-16866,-236,0.02,-1.01,-1.04,-226,-75,125,0.03,-0.09,0.05
1028,-16838,-142,0.01,-1.01,-1.03,-231,-67,122,-0.05,0.03,0
1184,-16830,-132,0.02,-1.01,-1.03,-229,-65,120,-0.02,0.06,-0.03
1110,-16754,-82,0.02,-1,-1.03,-232,-71,125,-0.06,-0.03,0.05
1150,-16778,-64,0.02,-1,-1.03,-231,-75,120,-0.05,-0.09,-0.03
1132,-16836,-114,0.02,-1.01,-1.03,-221,-62,116,0.11,0.11,-0.09
1148,-16830,6,0.02,-1.01,-1.02,-230,-71,128,-0.03,-0.03,0.09
1022,-16774,-232,0.01,-1,-1.04,-226,-72,125,0.03,-0.05,0.05
1140,-16780,-164,0.02,-1,-1.04,-225,-62,123,0.05,0.11,0.02
1086,-16862,-296,0.02,-1.01,-1.04,-230,-73,130,-0.03,-0.06,0.12
1102,-16800,-284,0.02,-1.01,-1.04,-227,-66,115,0.02,0.05,-0.11
1122,-16826,-276,0.02,-1.01,-1.04,-237,-64,130,-0.14,0.08,0.12
1166,-16814,-156,0.02,-1.01,-1.03,-227,-72,124,0.02,-0.05,0.03
1154,-16786,-16,0.02,-1,-1.03,-232,-58,114,-0.06,0.17,-0.12
1136,-16712,-58,0.02,-1,-1.03,-233,-62,114,-0.08,0.11,-0.12
1086,-16772,-172,0.02,-1,-1.04,-239,-63,129,-0.17,0.09,0.11
1060,-16732,-160,0.01,-1,-1.03,-221,-66,137,0.11,0.05,0.23
1114,-16866,-198,0.02,-1.01,-1.04,-216,-70,124,0.18,-0.02,0.03
1196,-16830,-110,0.02,-1.01,-1.03,-218,-66,131,0.15,0.05,0.14
1122,-16778,-182,0.02,-1,-1.04,-223,-71,124,0.08,-0.03,0.03
1170,-16740,-126,0.02,-1,-1.03,-231,-83,117,-0.05,-0.21,-0.08
1024,-16830,-278,0.01,-1.01,-1.04,-232,-65,124,-0.06,0.06,0.03
1192,-16846,-148,0.02,-1.01,-1.03,-235,-64,119,-0.11,0.08,-0.05
1210,-16832,-290,0.02,-1.01,-1.04,-233,-66,122,-0.08,0.05,0
1110,-16880,-58,0.02,-1.01,-1.03,-236,-68,123,-0.12,0.02,0.02
1126,-16794,-152,0.02,-1.01,-1.03,-241,-62,119,-0.2,0.11,-0.05
1028,-16822,-90,0.01,-1.01,-1.03,-241,-70,123,-0.2,-0.02,0.02
1110,-16894,-160,0.02,-1.01,-1.03,-227,-71,130,0.02,-0.03,0.12
1114,-16790,-162,0.02,-1,-1.03,-232,-65,112,-0.06,0.06,-0.15
1042,-16846,-216,0.01,-1.01,-1.04,-226,-63,116,0.03,0.09,-0.09
1044,-16778,-164,0.01,-1,-1.04,-227,-64,127,0.02,0.08,0.08
1180,-16802,-164,0.02,-1.01,-1.04,-225,-66,132,0.05,0.05,0.15
1126,-16850,-156,0.02,-1.01,-1.03,-215,-69,124,0.2,0,0.03
1112,-16828,-174,0.02,-1.01,-1.04,-224,-63,125,0.06,0.09,0.05
1086,-16764,-98,0.02,-1,-1.03,-223,-77,119,0.08,-0.12,-0.05
1140,-16802,-124,0.02,-1.01,-1.03,-220,-74,122,0.12,-0.08,0
1106,-16804,-190,0.02,-1.01,-1.04,-228,-70,128,0,-0.02,0.09
1190,-16900,-78,0.02,-1.01,-1.03,-228,-77,131,0,-0.12,0.14
1130,-16802,-246,0.02,-1.01,-1.04,-226,-64,123,0.03,0.08,0.02
1162,-16824,-108,0.02,-1.01,-1.03,-235,-77,119,-0.11,-0.12,-0.05
1044,-16780,-196,0.01,-1,-1.04,-235,-71,128,-0.11,-0.03,0.09
1138,-16836,-32,0.02,-1.01,-1.03,-237,-72,136,-0.14,-0.05,0.21
1122,-16838,-158,0.02,-1.01,-1.03,-231,-58,128,-0.05,0.17,0.09
1134,-16866,-254,0.02,-1.01,-1.04,-237,-66,118,-0.14,0.05,-0.06
1082,-16786,-146,0.02,-1,-1.03,-241,-64,133,-0.2,0.08,0.17
1120,-16936,-178,0.02,-1.01,-1.04,-232,-81,121,-0.06,-0.18,-0.02
1138,-16836,-110,0.02,-1.01,-1.03,-232,-63,116,-0.06,0.09,-0.09
1040,-16866,-174,0.01,-1.01,-1.04,-229,-66,125,-0.02,0.05,0.05
1094,-16834,-194,0.02,-1.01,-1.04,-225,-61,142,0.05,0.12,0.31
1140,-16796,-186,0.02,-1.01,-1.04,-215,-66,117,0.2,0.05,-0.08
1088,-16844,-80,0.02,-1.01,-1.03,-231,-64,121,-0.05,0.08,-0.02
1092,-16830,-234,0.02,-1.01,-1.04,-223,-79,136,0.08,-0.15,0.21
1170,-16824,-210,0.02,-1.01,-1.04,-225,-64,126,0.05,0.08,0.06
1124,-16894,-284,0.02,-1.01,-1.04,-233,-64,128,-0.08,0.08,0.09
1052,-16926,-272,0.01,-1.01,-1.04,-234,-69,127,-0.09,0,0.08
1102,-16708,-202,0.02,-1,-1.04,-232,-58,127,-0.06,0.17,0.08
1086,-16792,-194,0.02,-1,-1.04,-233,-68,123,-0.08,0.02,0.02
1136,-16824,-152,0.02,-1.01,-1.03,-232,-67,118,-0.06,0.03,-0.06
1108,-16744,-94,0.02,-1,-1.03,-233,-79,121,-0.08,-0.15,-0.02
1054,-16840,-184,0.01,-1.01,-1.04,-233,-69,124,-0.08,0,0.03
1110,-16872,-156,0.02,-1.01,-1.03,-230,-74,124,-0.03,-0.08,0.03
1186,-16754,-134,0.02,-1,-1.03,-228,-69,126,0,0,0.06
1088,-16854,-20,0.02,-1.01,-1.03,-232,-68,125,-0.06,0.02,0.05
1124,-16706,-144,0.02,-1,-1.03,-226,-70,119,0.03,-0.02,-0.05
1128,-16850,-138,0.02,-1.01,-1.03,-230,-73,126,-0.03,-0.06,0.06
1088,-16766,-68,0.02,-1,-1.03,-233,-68,122,-0.08,0.02,0
1126,-16786,-162,0.02,-1,-1.03,-229,-63,118,-0.02,0.09,-0.06
1126,-16798,-98,0.02,-1.01,-1.03,-232,-63,128,-0.06,0.09,0.09
1162,-16774,-120,0.02,-1,-1.03,-232,-67,117,-0.06,0.03,-0.08
1112,-16838,-206,0.02,-1.01,-1.04,-229,-77,116,-0.02,-0.12,-0.09
1072,-16872,-92,0.02,-1.01,-1.03,-234,-70,123,-0.09,-0.02,0.02
1106,-16872,-128,0.02,-1.01,-1.03,-229,-73,130,-0.02,-0.06,0.12
1084,-16818,22,0.02,-1.01,-1.02,-232,-64,122,-0.06,0.08,0
1066,-16750,-232,0.02,-1,-1.04,-223,-68,125,0.08,0.02,0.05
1214,-16838,-118,0.02,-1.01,-1.03,-233,-67,129,-0.08,0.03,0.11
1090,-16884,-136,0.02,-1.01,-1.03,-224,-70,130,0.06,-0.02,0.12
1138,-16700,-122,0.02,-1,-1.03,-222,-68,136,0.09,0.02,0.21
1118,-16794,-218,0.02,-1.01,-1.04,-223,-72,128,0.08,-0.05,0.09
1104,-16872,-240,0.02,-1.01,-1.04,-218,-72,127,0.15,-0.05,0.08
1088,-16826,-172,0.02,-1.01,-1.04,-216,-67,119,0.18,0.03,-0.05
1194,-16854,-140,0.02,-1.01,-1.03,-230,-63,124,-0.03,0.09,0.03
1150,-16808,-244,0.02,-1.01,-1.04,-227,-61,119,0.02,0.12,-0.05
1128,-16838,-152,0.02,-1.01,-1.03,-236,-59,126,-0.12,0.15,0.06
1116,-16838,-128,0.02,-1.01,-1.03,-228,-71,114,0,-0.03,-0.12
1108,-16798,-198,0.02,-1.01,-1.04,-228,-71,121,0,-0.03,-0.02
1142,-16766,-270,0.02,-1,-1.04,-234,-65,115,-0.09,0.06,-0.11
1142,-16778,-160,0.02,-1,-1.03,-229,-69,117,-0.02,0,-0.08
1114,-16812,-238,0.02,-1.01,-1.04,-227,-72,112,0.02,-0.05,-0.15
1076,-16794,-142,0.02,-1.01,-1.03,-226,-60,119,0.03,0.14,-0.05
1118,-16702,-348,0.02,-1,-1.05,-227,-69,118,0.02,0,-0.06
1108,-16820,-166,0.02,-1.01,-1.04,-235,-69,121,-0.11,0,-0.02
1116,-16756,-210,0.02,-1,-1.04,-232,-74,120,-0.06,-0.08,-0.03
1088,-16794,-228,0.02,-1.01,-1.04,-234,-67,127,-0.09,0.03,0.08
1100,-16820,-140,0.02,-1.01,-1.03,-225,-73,123,0.05,-0.06,0.02
1058,-16796,-218,0.01,-1.01,-1.04,-234,-72,124,-0.09,-0.05,0.03
1172,-16876,-208,0.02,-1.01,-1.04,-227,-70,123,0.02,-0.02,0.02
1144,-16830,-152,0.02,-1.01,-1.03,-225,-73,125,0.05,-0.06,0.05
1130,-16886,-226,0.02,-1.01,-1.04,-227,-69,126,0.02,0,0.06
1104,-16884,-160,0.02,-1.01,-1.03,-228,-72,129,0,-0.05,0.11
1092,-16838,-42,0.02,-1.01,-1.03,-228,-69,132,0,0,0.15
1084,-16816,-156,0.02,-1.01,-1.03,-228,-70,130,0,-0.02,0.12
1146,-16902,-196,0.02,-1.01,-1.04,-221,-70,128,0.11,-0.02,0.09
1168,-16814,-180,0.02,-1.01,-1.04,-221,-62,119,0.11,0.11,-0.05
1062,-16774,-256,0.01,-1,-1.04,-233,-69,119,-0.08,0,-0.05
1092,-16784,26,0.02,-1,-1.02,-232,-62,122,-0.06,0.11,0
1184,-16784,-184,0.02,-1,-1.04,-233,-71,128,-0.08,-0.03,0.09
1126,-16820,-166,0.02,-1.01,-1.04,-229,-66,117,-0.02,0.05,-0.08
1080,-16808,-252,0.02,-1.01,-1.04,-227,-73,127,0.02,-0.06,0.08
1072,-16842,-186,0.02,-1.01,-1.04,-232,-69,124,-0.06,0,0.03
1152,-16838,-150,0.02,-1.01,-1.03,-229,-68,119,-0.02,0.02,-0.05
1102,-16822,-288,0.02,-1.01,-1.04,-225,-75,123,0.05,-0.09,0.02
1048,-16872,-256,0.01,-1.01,-1.04,-239,-61,117,-0.17,0.12,-0.08
1120,-16764,-38,0.02,-1,-1.03,-220,-65,121,0.12,0.06,-0.02
1114,-16792,-68,0.02,-1,-1.03,-226,-69,121,0.03,0,-0.02
1148,-16836,-284,0.02,-1.01,-1.04,-224,-74,120,0.06,-0.08,-0.03
1132,-16792,-280,0.02,-1,-1.04,-231,-64,121,-0.05,0.08,-0.02
1132,-16906,-278,0.02,-1.01,-1.04,-237,-67,125,-0.14,0.03,0.05
1178,-16834,-196,0.02,-1.01,-1.04,-234,-71,123,-0.09,-0.03,0.02
1074,-16818,-222,0.02,-1.01,-1.04,-237,-72,125,-0.14,-0.05,0.05
1028,-16802,-74,0.01,-1.01,-1.03,-224,-68,129,0.06,0.02,0.11
1190,-16796,-86,0.02,-1.01,-1.03,-225,-69,123,0.05,0,0.02
1136,-16780,-158,0.02,-1,-1.03,-224,-73,126,0.06,-0.06,0.06
1096,-16802,-226,0.02,-1.01,-1.04,-225,-74,123,0.05,-0.08,0.02
1112,-16788,-132,0.02,-1,-1.03,-224,-62,122,0.06,0.11,0
1156,-16770,-134,0.02,-1,-1.03,-228,-59,128,0,0.15,0.09
1106,-16728,-102,0.02,-1,-1.03,-221,-68,125,0.11,0.02,0.05
1062,-16830,-284,0.01,-1.01,-1.04,-219,-72,125,0.14,-0.05,0.05
1116,-16882,-96,0.02,-1.01,-1.03,-232,-64,119,-0.06,0.08,-0.05
1110,-16870,-200,0.02,-1.01,-1.04,-227,-65,126,0.02,0.06,0.06
1146,-16834,-196,0.02,-1.01,-1.04,-225,-67,127,0.05,0.03,0.08
1132,-16816,-216,0.02,-1.01,-1.04,-229,-67,124,-0.02,0.03,0.03
1066,-16842,-176,0.02,-1.01,-1.04,-216,-66,128,0.18,0.05,0.09
1106,-16758,-232,0.02,-1,-1.04,-224,-67,134,0.06,0.03,0.18
1086,-16802,-190,0.02,-1.01,-1.04,-230,-83,123,-0.03,-0.21,0.02
1108,-16820,-234,0.02,-1.01,-1.04,-221,-64,131,0.11,0.08,0.14
1044,-16748,-88,0.01,-1,-1.03,-238,-64,125,-0.15,0.08,0.05
1108,-16810,-260,0.02,-1.01,-1.04,-236,-69,124,-0.12,0,0.03
1096,-16834,-186,0.02,-1.01,-1.04,-235,-79,136,-0.11,-0.15,0.21
1180,-16780,-144,0.02,-1,-1.03,-225,-71,118,0.05,-0.03,-0.06
1198,-16864,-150,0.02,-1.01,-1.03,-233,-67,109,-0.08,0.03,-0.2
1080,-16794,-206,0.02,-1.01,-1.04,-239,-70,123,-0.17,-0.02,0.02
1108,-16796,-162,0.02,-1.01,-1.03,-231,-72,117,-0.05,-0.05,-0.08
1160,-16842,-66,0.02,-1.01,-1.03,-229,-75,113,-0.02,-0.09,-0.14
1116,-16774,-124,0.02,-1,-1.03,-234,-68,119,-0.09,0.02,-0.05
1028,-16762,-84,0.01,-1,-1.03,-240,-71,123,-0.18,-0.03,0.02
1146,-16774,-170,0.02,-1,-1.04,-227,-68,115,0.02,0.02,-0.11
1076,-16794,-234,0.02,-1.01,-1.04,-220,-80,122,0.12,-0.17,0
1154,-16838,-94,0.02,-1.01,-1.03,-218,-66,132,0.15,0.05,0.15
1064,-16822,-172,0.02,-1.01,-1.04,-222,-69,129,0.09,0,0.11
1086,-16876,-174,0.02,-1.01,-1.04,-226,-70,125,0.03,-0.02,0.05
1034,-16874,-162,0.01,-1.01,-1.03,-227,-65,125,0.02,0.06,0.05
1082,-16794,-200,0.02,-1.01,-1.04,-233,-75,123,-0.08,-0.09,0.02
1132,-16816,-168,0.02,-1.01,-1.04,-232,-70,126,-0.06,-0.02,0.06
1122,-16886,-150,0.02,-1.01,-1.03,-230,-66,123,-0.03,0.05,0.02
1190,-16844,-220,0.02,-1.01,-1.04,-227,-76,121,0.02,-0.11,-0.02
1080,-16792,-152,0.02,-1,-1.03,-235,-72,118,-0.11,-0.05,-0.06
1058,-16836,-236,0.01,-1.01,-1.04,-221,-65,120,0.11,0.06,-0.03
1136,-16796,-144,0.02,-1.01,-1.03,-227,-80,121,0.02,-0.17,-0.02
1138,-16784,-340,0.02,-1,-1.05,-224,-80,130,0.06,-0.17,0.12
1104,-16850,-186,0.02,-1.01,-1.04,-225,-67,117,0.05,0.03,-0.08
1114,-16792,-234,0.02,-1,-1.04,-232,-73,125,-0.06,-0.06,0.05
1012,-16760,-242,0.01,-1,-1.04,-240,-66,117,-0.18,0.05,-0.08
1016,-16758,-216,0.01,-1,-1.04,-235,-69,124,-0.11,0,0.03
1106,-16792,-180,0.02,-1,-1.04,-223,-70,122,0.08,-0.02,0
1088,-16876,-248,0.02,-1.01,-1.04,-224,-69,120,0.06,0,-0.03
1126,-16806,-184,0.02,-1.01,-1.04,-243,-61,120,-0.23,0.12,-0.03
1154,-16882,-196,0.02,-1.01,-1.04,-231,-65,129,-0.05,0.06,0.11
1162,-16834,-192,0.02,-1.01,-1.04,-225,-61,121,0.05,0.12,-0.02
1160,-16786,-242,0.02,-1,-1.04,-238,-74,126,-0.15,-0.08,0.06
1058,-16824,-84,0.01,-1.01,-1.03,-229,-74,121,-0.02,-0.08,-0.02
1128,-16772,-108,0.02,-1,-1.03,-238,-78,114,-0.15,-0.14,-0.12
1104,-16780,-186,0.02,-1,-1.04,-230,-67,117,-0.03,0.03,-0.08
1120,-16858,-220,0.02,-1.01,-1.04,-227,-64,113,0.02,0.08,-0.14
1146,-16856,-172,0.02,-1.01,-1.04,-233,-67,130,-0.08,0.03,0.12
1148,-16836,-152,0.02,-1.01,-1.03,-234,-66,121,-0.09,0.05,-0.02
1082,-16828,-154,0.02,-1.01,-1.03,-231,-70,118,-0.05,-0.02,-0.06
1092,-16788,-232,0.02,-1,-1.04,-239,-78,119,-0.17,-0.14,-0.05
1048,-16744,-156,0.01,-1,-1.03,-232,-69,120,-0.06,0,-0.03
1170,-16826,-72,0.02,-1.01,-1.03,-225,-63,120,0.05,0.09,-0.03
1132,-16818,-250,0.02,-1.01,-1.04,-223,-73,134,0.08,-0.06,0.18
1136,-16816,-122,0.02,-1.01,-1.03,-229,-59,121,-0.02,0.15,-0.02
1118,-16782,-172,0.02,-1,-1.04,-229,-57,125,-0.02,0.18,0.05
1150,-16902,-110,0.02,-1.01,-1.03,-220,-66,121,0.12,0.05,-0.02
1068,-16848,-294,0.02,-1.01,-1.04,-234,-67,124,-0.09,0.03,0.03
1062,-16800,-68,0.01,-1.01,-1.03,-226,-67,119,0.03,0.03,-0.05
1132,-16770,-146,0.02,-1,-1.03,-223,-64,125,0.08,0.08,0.05
1086,-16826,-124,0.02,-1.01,-1.03,-231,-72,129,-0.05,-0.05,0.11
1100,-16812,-146,0.02,-1.01,-1.03,-232,-76,122,-0.06,-0.11,0
1154,-16780,-178,0.02,-1,-1.04,-225,-72,132,0.05,-0.05,0.15
1136,-16760,-194,0.02,-1,-1.04,-223,-74,125,0.08,-0.08,0.05
1142,-16804,-48,0.02,-1.01,-1.03,-234,-68,125,-0.09,0.02,0.05
1054,-16786,-140,0.01,-1,-1.03,-216,-62,128,0.18,0.11,0.09
1136,-16832,-242,0.02,-1.01,-1.04,-223,-69,130,0.08,0,0.12
1194,-16738,-134,0.02,-1,-1.03,-223,-63,124,0.08,0.09,0.03
1148,-16822,-246,0.02,-1.01,-1.04,-224,-63,118,0.06,0.09,-0.06
1120,-16786,-180,0.02,-1,-1.04,-231,-76,119,-0.05,-0.11,-0.05
1098,-16796,-82,0.02,-1.01,-1.03,-225,-77,126,0.05,-0.12,0.06
1114,-16840,-190,0.02,-1.01,-1.04,-226,-76,118,0.03,-0.11,-0.06
1148,-16842,-184,0.02,-1.01,-1.04,-235,-69,125,-0.11,0,0.05
1148,-16830,-248,0.02,-1.01,-1.04,-223,-75,112,0.08,-0.09,-0.15
1154,-16816,-76,0.02,-1.01,-1.03,-220,-63,116,0.12,0.09,-0.09
1062,-16828,-280,0.01,-1.01,-1.04,-233,-76,111,-0.08,-0.11,-0.17
1118,-16780,-280,0.02,-1,-1.04,-231,-69,116,-0.05,0,-0.09
1032,-16840,-190,0.01,-1.01,-1.04,-241,-65,126,-0.2,0.06,0.06
1124,-16790,-168,0.02,-1,-1.04,-239,-64,115,-0.17,0.08,-0.11
1188,-16776,-138,0.02,-1,-1.03,-233,-69,122,-0.08,0,0
1116,-16874,-152,0.02,-1.01,-1.03,-232,-67,115,-0.06,0.03,-0.11
1040,-16870,-166,0.01,-1.01,-1.04,-228,-62,125,0,0.11,0.05
1072,-16774,-242,0.02,-1,-1.04,-228,-64,122,0,0.08,0
1082,-16780,-194,0.02,-1,-1.04,-228,-64,131,0,0.08,0.14
1120,-16856,-128,0.02,-1.01,-1.03,-222,-74,133,0.09,-0.08,0.17
986,-16784,-198,0.01,-1,-1.04,-226,-67,128,0.03,0.03,0.09
1160,-16866,-278,0.02,-1.01,-1.04,-214,-65,128,0.21,0.06,0.09
1096,-16760,-250,0.02,-1,-1.04,-236,-58,121,-0.12,0.17,-0.02
1118,-16732,-88,0.02,-1,-1.03,-224,-76,117,0.06,-0.11,-0.08
1124,-16840,-228,0.02,-1.01,-1.04,-234,-76,125,-0.09,-0.11,0.05
1146,-16830,-132,0.02,-1.01,-1.03,-240,-71,122,-0.18,-0.03,0
1148,-16808,-146,0.02,-1.01,-1.03,-233,-72,119,-0.08,-0.05,-0.05
1144,-16806,-230,0.02,-1.01,-1.04,-228,-71,118,0,-0.03,-0.06
1132,-16832,-196,0.02,-1.01,-1.04,-236,-69,111,-0.12,0,-0.17
1220,-16854,-240,0.02,-1.01,-1.04,-236,-79,115,-0.12,-0.15,-0.11
1106,-16770,-136,0.02,-1,-1.03,-256,-74,114,-0.43,-0.08,-0.12
1144,-16898,-186,0.02,-1.01,-1.04,-238,-66,116,-0.15,0.05,-0.09
1196,-16812,-218,0.02,-1.01,-1.04,-238,-48,117,-0.15,0.32,-0.08
990,-16834,-196,0.01,-1.01,-1.04,-236,-70,120,-0.12,-0.02,-0.03
1062,-16796,-214,0.01,-1.01,-1.04,-228,-68,119,0,0.02,-0.05
1118,-16814,-214,0.02,-1.01,-1.04,-239,-72,126,-0.17,-0.05,0.06
